,acc_X,acc_Y,acc_Z,gyro_X,gyro_Y,gyro_Z,acc
0,0.42,0.72,0.62,14.63,22.16,50.49,1.0388455130576442
1,0.41,0.71,0.62,13.72,22.68,50.73,1.0279105019407089
2,0.43,0.7,0.61,13.02,23.29,50.46,1.0232301793829186
3,0.43,0.7,0.62,12.56,24.36,50.24,1.0292230079045066
4,0.43,0.7,0.62,12.71,25.73,50.12,1.0292230079045066
5,0.43,0.7,0.62,12.26,26.55,49.18,1.0292230079045066
6,0.44,0.7,0.62,11.95,27.16,48.51,1.0334408546211051
7,0.42,0.69,0.62,12.38,27.68,49.42,1.0182828683622247
8,0.42,0.69,0.62,12.65,28.29,50.03,1.0182828683622247
9,0.39,0.68,0.63,12.84,28.63,51.22,1.0056838469419702
10,0.4,0.68,0.63,13.29,29.45,51.62,1.009603882718366
11,0.41,0.66,0.64,13.99,30.3,52.16,1.006628034578811
12,0.42,0.65,0.64,14.88,30.67,51.71,1.0042410069301093
13,0.41,0.64,0.64,16.16,29.85,51.34,0.9936297097007517
14,0.41,0.64,0.65,17.32,29.94,51.01,1.0000999950004998
15,0.41,0.64,0.64,18.54,29.7,50.64,0.9936297097007517
16,0.42,0.63,0.64,19.57,29.18,50.85,0.9914131328563285
17,0.4,0.63,0.65,21.04,29.27,50.55,0.9896464014990405
18,0.41,0.63,0.65,22.04,28.57,50.34,0.9937303457175896
19,0.41,0.63,0.64,22.44,27.41,49.97,0.9872183142547548
20,0.4,0.63,0.64,23.35,27.62,49.7,0.9831073186585482
21,0.4,0.64,0.64,24.21,26.95,49.73,0.9895453501482385
22,0.39,0.64,0.63,25.09,26.34,50.0,0.9790812019439451
23,0.39,0.64,0.63,26.04,26.77,49.88,0.9790812019439451
24,0.39,0.64,0.62,26.34,25.7,50.27,0.9726767191621275
25,0.39,0.65,0.63,27.07,25.15,50.27,0.9856469956328179
26,0.39,0.65,0.63,27.56,24.91,50.79,0.9856469956328179
27,0.39,0.64,0.61,28.54,24.79,51.31,0.9663332758422428
28,0.39,0.64,0.62,29.3,24.7,52.32,0.9726767191621275
29,0.4,0.64,0.62,30.55,24.91,52.84,0.9767292357659825
30,0.41,0.63,0.61,31.4,25.15,54.05,0.9680392554023829
31,0.41,0.63,0.61,33.02,26.28,54.33,0.9680392554023829
32,0.41,0.63,0.6,33.75,26.71,55.4,0.9617692030835672
33,0.41,0.62,0.6,34.85,26.65,55.58,0.95524865872714
34,0.42,0.62,0.6,35.24,27.01,55.4,0.9595832428716125
35,50.78,0.23,0.68,5.49,0.67,0.52,50.785073594512
36,0.78,0.24,0.67,5.88,0.7,0.4,1.0558882516630252
37,0.78,0.24,0.68,6.4,1.19,0.52,1.06226173799116
38,0.78,0.24,0.67,6.4,0.79,0.06,1.0558882516630252
39,0.78,0.24,0.67,6.13,0.73,-0.34,1.0558882516630252
40,0.78,0.24,0.67,5.76,1.01,-0.27,1.0558882516630252
41,0.79,0.25,0.67,4.85,1.37,-0.67,1.0655984234222573
42,0.78,0.25,0.67,4.09,1.16,-1.01,1.0582060290888538
43,0.79,0.25,0.66,3.51,1.65,-1.59,1.0593394168065304
44,0.79,0.24,0.66,2.96,1.89,-1.19,1.057024124606435
45,0.79,0.24,0.66,2.68,2.93,-1.43,1.057024124606435
46,0.79,0.24,0.66,2.35,3.08,-1.77,1.057024124606435
47,0.79,0.24,0.66,1.92,2.87,-2.1,1.057024124606435
48,0.78,0.24,0.66,1.59,3.02,-2.16,1.049571341072154
49,0.78,0.24,0.67,1.37,2.74,-2.2,1.0558882516630252
50,0.78,0.24,0.67,1.4,2.47,-1.89,1.0558882516630252
51,0.78,0.23,0.67,1.59,2.68,-1.86,1.0536602868097478
52,0.78,0.23,0.67,1.65,1.92,-1.62,1.0536602868097478
53,0.78,0.23,0.68,1.65,1.77,-1.65,1.0600471687618434
54,0.77,0.24,0.68,1.71,1.16,-1.62,1.0549407566304376
55,0.77,0.24,0.68,1.8,0.12,-1.77,1.0549407566304376
56,0.77,0.24,0.69,1.49,-0.37,-1.49,1.061414151026827
57,0.77,0.24,0.68,1.31,-0.27,-1.28,1.0549407566304376
58,0.78,0.25,0.67,1.43,-0.52,-1.43,1.0582060290888538
59,0.78,0.25,0.67,0.95,-0.79,-1.34,1.0582060290888538
60,0.78,0.25,0.68,1.31,-0.46,-1.25,1.0645656391223606
61,0.78,0.25,0.67,1.34,-0.7,-1.43,1.0582060290888538
62,0.79,0.25,0.67,1.43,-0.18,-1.37,1.0655984234222573
63,0.79,0.26,0.67,1.8,0.09,-1.62,1.067988763985839
64,0.79,0.26,0.67,1.68,0.12,-1.74,1.067988763985839
65,0.79,0.26,0.66,1.68,0.98,-1.25,1.0617438485811916
66,0.79,0.27,0.66,1.52,1.52,-1.4,1.0642368157510809
67,0.79,0.27,0.66,1.46,2.29,-1.16,1.0642368157510809
68,0.78,0.27,0.67,0.88,2.38,-1.37,1.06310864919819
69,0.79,0.28,0.66,0.34,2.47,-1.59,1.0668176976409793
70,0.79,0.28,0.66,-0.4,3.23,-1.59,1.0668176976409793
71,0.79,0.28,0.66,-1.04,2.65,-1.77,1.0668176976409793
72,0.78,0.28,0.67,-2.07,2.9,-1.92,1.0656922632730332
73,0.78,0.28,0.67,-2.59,2.87,-1.74,1.0656922632730332
74,0.78,0.28,0.67,-3.41,2.26,-1.68,1.0656922632730332
75,0.78,0.28,0.68,-3.9,2.13,-1.55,1.0720074626605918
76,0.78,0.28,0.69,-4.63,1.28,-1.04,1.0783784122468327
77,0.78,0.27,0.7,-5.18,0.7,-1.59,1.082266141020775
78,0.78,0.26,0.7,-5.88,0.06,-1.4,1.079814798935447
79,0.79,0.26,0.7,-5.91,-0.4,-1.89,1.0870602559196063
80,0.79,0.24,0.7,-6.52,-1.68,-1.77,1.082450922675019
81,0.8,0.24,0.7,-7.32,-1.95,-2.16,1.0897706180660223
82,0.82,0.23,0.71,-8.48,-1.34,-2.35,1.1087831167545796
83,0.84,0.23,0.72,-9.63,-0.73,-2.8,1.13
84,0.86,0.22,0.72,-11.59,-0.58,-3.66,1.142978564978364
85,0.88,0.21,0.74,-13.38,0.7,-4.21,1.1688028062936877
86,0.91,0.21,0.74,-15.91,1.98,-4.91,1.1915536076903968
87,0.95,0.2,0.75,-19.57,3.75,-5.12,1.2267844146385296
88,0.98,0.18,0.76,-23.78,7.62,-5.4,1.2531560158256432
89,1.02,0.15,0.79,-28.66,12.68,-6.16,1.2988456413292535
90,1.13,0.12,0.83,-37.26,18.66,-4.91,1.4071957930579524
91,1.22,0.08,0.85,-44.48,25.79,-5.43,1.4890601062415176
92,1.3,0.02,0.89,-54.18,34.24,-5.18,1.575595125658873
93,1.4,-0.1,0.97,-61.83,43.69,-7.1,1.7061359852016484
94,1.54,-0.31,1.04,-69.02,52.04,-10.12,1.883958598271204
95,1.66,-0.5,1.16,-70.85,59.6,-16.4,2.0859530196051876
96,1.7,-0.75,1.3,-70.82,67.35,-20.18,2.267708094089713
97,1.77,-1.17,1.46,-61.55,73.54,-24.66,2.5755387785859485
98,1.9,-1.6,1.77,-64.79,76.86,-19.6,3.050065573065602
99,2.0,-2.0,2.0,-30.98,90.67,-34.51,3.4641016151377544
100,2.0,-2.0,2.0,-1.1,87.8,-43.29,3.4641016151377544
101,2.0,-2.0,2.0,24.97,83.2,-55.46,3.4641016151377544
102,2.0,-2.0,2.0,51.98,71.37,-73.48,3.4641016151377544
103,2.0,-2.0,2.0,71.43,62.68,-82.41,3.4641016151377544
104,2.0,-2.0,2.0,99.6,60.15,-99.7,3.4641016151377544
105,2.0,-2.0,2.0,69.42,15.18,-124.12,3.4641016151377544
106,2.0,-2.0,2.0,-7.93,-53.96,-152.62,3.4641016151377544
107,2.0,-2.0,1.92,-111.43,-121.59,-192.1,3.4185376990754395
108,2.0,-2.0,1.34,-225.95,-198.9,-220.24,3.1297923253787943
109,2.0,-2.0,0.96,-337.01,-245.52,-238.11,2.986904752415115
110,2.0,-2.0,0.55,-443.54,-287.44,-250.18,2.881405906844782
111,2.0,-2.0,0.15,-530.0,-340.76,-260.21,2.8324018076537096
112,2.0,-2.0,-0.08,-581.52,-371.77,-290.91,2.829558269412383
113,2.0,-2.0,-0.49,-585.85,-398.32,-332.16,2.8705574371539755
114,2.0,-2.0,-1.01,-588.14,-436.8,-387.68,3.0033481316690542
115,2.0,-2.0,-1.81,-566.31,-479.18,-394.02,3.3579904705046437
116,2.0,-2.0,-2.0,-500.0,-372.65,-429.57,3.4641016151377544
117,2.0,-2.0,-2.0,-428.41,-309.42,-433.78,3.4641016151377544
118,2.0,-2.0,-2.0,-391.22,-211.49,-402.59,3.4641016151377544
119,2.0,-2.0,-2.0,-314.79,99.36,-442.8,3.4641016151377544
120,2.0,-2.0,-2.0,-304.76,318.93,-493.41,3.4641016151377544
121,2.0,-2.0,-2.0,-321.77,573.35,-555.64,3.4641016151377544
122,2.0,-2.0,-2.0,-363.99,788.38,-669.51,3.4641016151377544
123,2.0,-2.0,-2.0,-442.8,886.62,-777.16,3.4641016151377544
124,1.74,-2.0,-2.0,-493.66,967.77,-856.07,3.3207830401879614
125,-0.5,-2.0,-2.0,-516.19,993.14,-833.75,2.8722813232690143
126,-2.0,-2.0,-2.0,-454.02,994.76,-811.25,3.4641016151377544
127,-2.0,-2.0,-0.98,-300.37,931.74,-756.37,2.9933927239839413
128,-2.0,-2.0,0.44,-130.98,757.93,-657.93,2.862446506050375
129,-2.0,-2.0,2.0,102.77,663.93,-707.13,3.4641016151377544
130,-2.0,-2.0,2.0,164.6,548.81,-748.63,3.4641016151377544
131,-2.0,-2.0,2.0,185.55,499.91,-625.15,3.4641016151377544
132,-2.0,-2.0,2.0,242.84,601.71,-631.13,3.4641016151377544
133,-2.0,-1.62,2.0,237.29,860.3,-905.79,3.2595091655032973
134,-2.0,2.0,2.0,-127.99,828.38,-631.04,3.4641016151377544
135,-2.0,2.0,2.0,-853.51,260.98,-574.73,3.4641016151377544
136,-2.0,2.0,2.0,-999.02,-150.7,-841.22,3.4641016151377544
137,-2.0,2.0,2.0,-999.02,282.16,-956.62,3.4641016151377544
138,-2.0,2.0,2.0,-618.87,266.95,-658.78,3.4641016151377544
139,-2.0,2.0,2.0,-41.04,306.98,-478.48,3.4641016151377544
140,-2.0,2.0,2.0,544.6,-20.49,-155.15,3.4641016151377544
141,-2.0,2.0,2.0,998.99,-183.05,270.4,3.4641016151377544
142,-2.0,2.0,-2.0,907.32,-427.53,695.49,3.4641016151377544
143,-1.43,2.0,-2.0,801.1,-791.19,902.23,3.1693690223765363
144,2.0,0.07,-2.0,628.78,-999.02,801.89,2.829293197955984
145,2.0,-0.09,-2.0,582.59,-944.24,565.43,2.8298586537139974
146,2.0,0.8,-2.0,269.39,-401.25,688.93,2.939387691339814
147,-0.83,2.0,-2.0,66.86,716.59,667.13,2.947694013970921
148,-2.0,2.0,-2.0,-398.05,499.33,418.66,3.4641016151377544
149,-2.0,-2.0,-2.0,-902.8,-172.35,260.67,3.4641016151377544
150,-2.0,-2.0,-2.0,-999.02,-447.59,151.01,3.4641016151377544
151,-2.0,-2.0,0.1,-999.02,-393.87,-22.8,2.8301943396169813
152,-0.22,-2.0,-0.33,-749.3,-538.14,-393.57,2.0389458060478214
153,1.52,-2.0,1.19,-580.27,-375.49,-237.07,2.7796582523756403
154,2.0,-2.0,2.0,-77.38,61.98,120.12,3.4641016151377544
155,1.73,-2.0,2.0,142.38,357.68,74.09,3.315554252308353
156,0.34,-2.0,-0.24,124.94,76.34,47.07,2.042841158778626
157,-0.24,-0.35,0.88,-32.65,9.33,0.46,0.9769851585361979
158,0.19,1.97,0.89,-116.92,49.97,-21.07,2.1700460824600016
159,0.11,2.0,0.78,-199.24,55.24,-51.74,2.1495348334000077
160,-0.05,2.0,1.01,-303.72,0.27,-32.62,2.241115793527858
161,-0.22,1.5,1.57,-260.52,41.49,-73.78,2.182498568155315
162,-0.18,0.56,1.51,-198.78,21.65,-50.4,1.6205246064160828
163,0.04,0.67,2.0,-98.29,67.01,-44.66,2.1096208190098995
164,0.01,0.99,1.95,-10.64,96.1,-17.96,2.186938499363894
165,-0.2,1.76,1.77,28.6,93.78,-0.67,2.504096643502403
166,-0.21,2.0,1.57,25.4,97.13,12.65,2.5512741914580643
167,-0.19,2.0,1.34,-14.6,93.81,19.63,2.414891301901599
168,-0.08,2.0,1.14,-70.52,76.98,27.26,2.3034756347745464
169,0.06,2.0,1.05,-112.44,51.86,21.98,2.259668117224297
170,0.24,1.36,1.16,-123.23,56.59,20.43,1.8035520508152796
171,0.4,0.67,1.2,-105.21,62.93,20.4,1.4313979181206042
172,0.4,0.32,1.14,-73.32,66.07,20.0,1.2497999839974394
173,0.42,0.19,1.03,-42.23,69.91,22.77,1.1284502647436438
174,0.46,0.2,0.9,-21.86,79.36,23.81,1.0303397497913007
175,0.46,0.21,0.77,-19.6,86.59,18.99,0.9211948762341223
176,0.46,0.17,0.66,-33.14,88.41,6.62,0.8222530024268686
177,0.45,0.1,0.69,-54.48,86.92,-5.91,0.8298192574289897
178,0.3,0.06,0.83,-73.32,80.52,-11.68,0.8845903006477066
179,0.12,-0.08,1.1,-86.95,66.4,-14.33,1.1094142598686931
180,-0.01,-0.29,1.44,-89.57,51.13,-16.16,1.4689451997947371
181,-0.12,-0.45,1.71,-77.68,35.73,-18.35,1.7722866585290313
182,-0.15,-0.58,1.81,-56.59,22.07,-17.53,1.9065675964937618
183,-0.06,-0.62,1.81,-32.07,15.61,-13.75,1.9141838992113585
184,0.04,-0.49,1.73,-7.77,19.3,-9.09,1.7984993744786235
185,0.03,-0.34,1.65,8.9,26.55,-0.64,1.6849332330985698
186,-0.0,-0.09,1.45,11.01,16.25,-2.38,1.4527904184706066
187,-0.01,0.16,1.33,3.99,-1.71,-0.95,1.3396268137059664
188,0.03,0.22,1.3,1.8,4.66,2.32,1.3188252348207476
189,0.08,0.17,1.09,2.62,3.93,5.55,1.1060741385639574
190,0.16,-0.0,0.96,8.41,4.15,8.05,0.9732420048477152
191,0.32,-0.25,0.92,26.83,25.27,6.01,1.0056341282991543
192,0.45,-0.35,0.83,48.84,47.44,3.75,1.0069260151570223
193,0.43,-0.29,0.77,63.96,64.94,0.09,0.9283856957105704
194,0.33,-0.16,0.68,66.98,76.37,-5.49,0.772593036468748
195,0.3,-0.05,0.56,58.08,82.44,-15.58,0.6372597586541928
196,0.34,-0.01,0.49,41.16,95.88,-29.6,0.5964897316802695
197,0.4,-0.04,0.42,17.87,112.71,-45.34,0.5813776741499453
198,0.3,-0.03,0.47,-10.52,122.56,-50.82,0.5583905443325486
199,-0.01,0.04,0.69,-34.21,124.3,-49.54,0.6912307863514181
200,-0.31,0.05,0.92,-52.59,102.35,-46.46,0.972111104761179
201,-0.53,-0.02,1.18,-60.67,72.5,-38.54,1.2937155792522559
202,-0.6,-0.14,1.37,-56.46,45.98,-33.96,1.5021651041080673
203,-0.5,-0.22,1.44,-42.29,25.49,-26.89,1.5401298646542765
204,-0.41,-0.17,1.43,-28.02,12.04,-20.12,1.4972975656161336
205,-0.38,0.08,1.36,-20.85,-6.13,-14.09,1.4143549766589718
206,-0.41,0.36,1.34,-15.37,-19.05,0.27,1.4468241081762496
207,-0.52,0.62,1.35,-18.05,-41.49,-1.49,1.5739440904936872
208,-0.43,0.62,1.54,-18.99,-42.35,12.59,1.7149052451957805
209,-0.46,0.54,1.41,-14.39,-56.25,23.11,1.5783852508180631
210,-0.43,0.34,1.28,-8.75,-76.43,31.89,1.3924438947404667
211,-0.2,-0.02,1.32,15.64,-48.11,45.37,1.3352153384379615
212,-0.09,-0.3,1.09,43.17,-32.9,50.95,1.1341075786714416
213,-0.02,-0.51,0.86,61.22,-31.62,50.09,1.0000499987500624
214,0.14,-0.6,0.8,80.24,-5.76,49.12,1.009752444909147
215,0.2,-0.59,0.68,86.86,8.9,43.35,0.9222255689363639
216,0.21,-0.54,0.62,81.13,15.85,34.79,0.8485870609430713
217,0.22,-0.46,0.67,70.95,31.19,20.4,0.841961994391671
218,0.16,-0.39,0.64,53.26,32.26,7.96,0.766355009117837
219,0.13,-0.34,0.71,33.6,35.15,-5.21,0.7978721702127478
220,0.12,-0.28,0.77,15.52,39.24,-17.44,0.8280700453464066
221,-0.01,-0.17,0.81,-2.29,34.66,-24.85,0.8277076778670113
222,-0.14,-0.08,0.88,-18.6,25.12,-28.87,0.8946507698538017
223,-0.23,0.08,0.95,-32.44,14.02,-27.65,0.9807140255956371
224,-0.28,0.25,1.04,-42.41,7.35,-27.07,1.1056672193747992
225,-0.26,0.39,1.1,-48.66,0.37,-22.62,1.1957006314291216
226,-0.3,0.5,1.14,-51.28,-10.7,-17.1,1.2804686642007292
227,-0.33,0.65,1.22,-50.61,-16.71,-8.75,1.4211966788590522
228,-0.4,0.78,1.28,-46.77,-21.68,2.47,1.5513864766717544
229,-0.48,0.86,1.3,-42.01,-32.26,14.91,1.6309506430300091
230,-0.46,0.78,1.34,-31.59,-35.0,29.05,1.6172816699635226
231,-0.43,0.55,1.36,-15.95,-33.66,44.6,1.528724958911838
232,-0.36,0.23,1.34,6.4,-30.64,56.98,1.4064494303031305
233,-0.26,-0.12,1.27,32.29,-26.16,64.3,1.3018832512940628
234,-0.1,-0.43,1.18,58.54,-18.54,66.28,1.2598809467564782
235,0.05,-0.63,1.06,81.25,-6.59,66.74,1.2340988615179904
236,0.12,-0.65,0.87,93.87,1.92,63.32,1.0926115503691145
237,0.18,-0.65,0.72,91.71,6.34,57.01,0.9865596788841514
238,0.21,-0.6,0.62,79.18,13.6,45.4,0.8879752248796134
239,0.26,-0.57,0.54,58.41,17.96,29.97,0.8271033792700886
240,0.25,-0.5,0.44,29.51,12.04,9.18,0.7114070564732965
241,0.32,-0.43,0.47,1.25,18.63,-8.05,0.7128814768248646
242,0.34,-0.33,0.51,-25.4,29.3,-22.84,0.6961321713582845
243,0.28,-0.22,0.55,-50.82,31.86,-32.71,0.6552098900352467
244,0.18,-0.1,0.72,-69.7,41.49,-38.72,0.7488658090739622
245,0.04,0.0,0.88,-82.44,41.4,-40.52,0.8809086218218096
246,-0.12,0.07,1.06,-88.81,34.24,-38.63,1.0690650120549265
247,-0.22,0.12,1.3,-85.3,28.93,-34.15,1.3239335330748292
248,-0.3,0.13,1.49,-74.45,20.34,-28.05,1.5254507530562893
249,-0.33,0.14,1.7,-57.23,11.77,-19.91,1.7373830895919298
250,-0.36,0.16,1.8,-34.66,5.7,-10.4,1.8426068490049634
251,-0.39,0.15,1.83,-13.41,-5.82,-0.3,1.877098825315279
252,-0.37,0.1,1.84,7.01,-16.43,9.57,1.8794946129212502
253,-0.31,0.03,1.78,26.77,-21.28,19.02,1.8070417814760122
254,-0.23,-0.1,1.61,45.3,-28.35,24.39,1.6294170736800324
255,-0.09,-0.23,1.44,61.98,-31.62,27.77,1.46102703602637
256,0.07,-0.33,1.28,77.04,-24.88,30.15,1.323706916201619
257,0.18,-0.34,1.06,87.23,-15.76,29.21,1.127652428720836
258,0.26,-0.26,0.88,89.51,-4.15,26.86,0.9537295214053091
259,0.28,-0.14,0.73,84.27,3.78,23.87,0.7942921376924236
260,0.28,-0.02,0.67,70.64,13.08,18.14,0.7264296249465602
261,0.23,0.09,0.65,50.21,22.68,11.71,0.6953416426476988
262,0.17,0.17,0.64,24.21,23.05,3.54,0.6836665854054884
263,0.12,0.19,0.69,-2.47,21.52,-3.96,0.7256721022610694
264,0.09,0.19,0.79,-24.91,23.14,-10.27,0.8174961773610933
265,0.03,0.17,0.9,-41.22,23.26,-13.57,0.9164060235506967
266,0.0,0.14,1.01,-50.91,24.24,-14.45,1.0196568050084303
267,-0.03,0.12,1.15,-54.15,25.85,-14.24,1.1566330446602326
268,-0.1,0.09,1.27,-52.16,22.99,-12.5,1.277106103657797
269,-0.16,0.08,1.39,-46.28,18.51,-9.15,1.4014635207525024
270,-0.2,0.06,1.48,-36.8,12.8,-5.55,1.4946571513226703
271,-0.23,0.03,1.53,-25.58,4.27,-1.13,1.547481825418315
272,-0.22,-0.02,1.56,-11.37,-1.95,2.5,1.5755633912984905
273,-0.2,-0.07,1.54,3.32,-8.81,5.95,1.5545095689637938
274,-0.19,-0.12,1.51,17.9,-15.06,8.6,1.526630276131061
275,-0.13,-0.17,1.44,31.04,-19.15,10.82,1.4558159224297555
276,-0.05,-0.16,1.35,40.98,-21.37,10.76,1.360367597379473
277,0.02,-0.12,1.22,46.59,-21.37,8.75,1.226050569919528
278,0.07,-0.07,1.08,48.08,-18.35,8.2,1.084527546906947
279,0.12,-0.02,0.96,46.43,-14.3,8.17,0.9676776322722356
280,0.16,0.03,0.87,41.86,-6.25,7.65,0.8850988645343525
281,0.2,0.09,0.81,35.3,2.84,5.58,0.83916625289629
282,0.21,0.12,0.77,26.16,11.31,1.95,0.8070935509592428
283,0.19,0.18,0.76,14.79,19.39,-1.86,0.8038034585643433
284,0.18,0.25,0.79,2.68,26.62,-5.27,0.8479386770280031
285,0.15,0.3,0.83,-9.12,31.92,-7.84,0.8952094726934026
286,0.09,0.32,0.91,-20.55,35.21,-8.6,0.9688137075826292
287,0.01,0.33,0.99,-30.49,35.06,-8.14,1.043599540053559
288,-0.09,0.3,1.09,-37.71,30.91,-6.28,1.1341075786714416
289,-0.15,0.23,1.18,-40.64,25.43,-3.32,1.2115279608824552
290,-0.17,0.13,1.25,-38.75,17.5,-0.95,1.2681876832708951
291,-0.17,-0.01,1.3,-32.53,9.91,1.16,1.3111064030047295
292,-0.13,-0.11,1.33,-22.01,4.57,3.02,1.3408579343092244
293,-0.12,-0.2,1.31,-10.73,-1.34,4.12,1.3306013678032953
294,-0.11,-0.25,1.3,0.61,-6.1,1.49,1.3283824750424857
295,-0.06,-0.27,1.27,9.51,-9.7,4.3,1.299769210283118
296,-0.07,-0.23,1.21,17.04,-10.67,1.43,1.2336531116971254
297,-0.06,-0.19,1.12,19.12,-19.21,-0.76,1.13758516164725
298,-0.02,-0.16,1.13,20.34,-16.92,-0.73,1.1414464507807625
299,0.01,-0.14,1.08,21.43,-13.6,-2.65,1.0890821823902914
300,0.0,-0.11,1.0,19.42,-16.04,-3.05,1.0060318086422517
301,0.04,-0.11,0.97,18.54,-11.52,-3.96,0.9770363350459388
302,0.09,-0.07,0.94,17.87,-5.55,-3.93,0.9468896451012652
303,0.08,-0.02,0.9,15.09,1.01,-5.27,0.9037698822156003
304,0.09,0.03,0.86,10.49,5.79,-5.58,0.8652167358529306
305,0.08,0.09,0.85,3.78,11.19,-6.43,0.85848704125339
306,0.1,0.15,0.84,-4.39,15.82,-8.11,0.8591274643497319
307,0.07,0.15,0.9,-14.88,19.94,-8.93,0.9150956234186677
308,0.04,0.14,0.96,-22.23,26.59,-8.48,0.9709788875150684
309,0.04,0.18,0.96,-29.54,20.15,-10.52,0.977547952787995
310,-0.03,0.16,1.13,-31.86,30.91,-6.71,1.1416654501210062
311,-0.08,0.1,1.16,-32.5,25.61,-5.61,1.1670475568716125
312,-0.16,0.07,1.24,-30.88,15.46,-3.11,1.2522379965485795
313,-0.2,0.0,1.35,-22.44,15.4,1.55,1.3647344063956182
314,-0.2,-0.08,1.36,-10.67,7.38,4.63,1.3769531582446806
315,-0.2,-0.13,1.36,2.32,-2.38,7.13,1.3807606599262598
316,-0.16,-0.17,1.35,16.16,-7.13,9.48,1.3700364958642526
317,-0.13,-0.17,1.29,27.56,-13.48,11.98,1.3076314465475356
318,-0.1,-0.16,1.22,34.45,-18.02,13.48,1.2345039489608771
319,-0.07,-0.11,1.14,38.26,-21.43,12.38,1.1474319151914851
320,-0.03,-0.08,1.05,36.86,-26.19,10.98,1.053470455209827
321,-0.01,-0.03,0.99,32.38,-25.49,8.72,0.9905049217444606
322,0.02,0.03,0.92,24.94,-24.57,6.07,0.9207062506576134
323,0.06,0.08,0.86,14.48,-23.84,4.15,0.8657944328765345
324,0.08,0.12,0.83,4.85,-18.51,2.62,0.842436941260294
325,0.1,0.14,0.82,-4.3,-11.59,1.43,0.8378544026261364
326,0.1,0.14,0.84,-12.13,-5.18,1.19,0.8574380444090406
327,0.08,0.12,0.89,-18.26,1.01,0.55,0.9016096716428901
328,0.07,0.08,0.94,-21.74,5.76,0.52,0.9459915433025815
329,0.04,-0.0,0.98,-21.83,9.82,1.01,0.9808159868191383
330,0.04,-0.09,1.04,-18.63,12.93,0.37,1.0446530524533015
331,0.03,-0.16,1.08,-13.38,14.45,-0.21,1.0921996154549771
332,0.03,-0.19,1.13,-6.4,15.24,-0.82,1.1462547709824373
333,-0.01,-0.21,1.16,0.46,13.84,-0.64,1.1788977903109328
334,-0.01,-0.21,1.17,7.2,11.62,-1.34,1.1887388274974449
335,-0.03,-0.2,1.18,13.51,7.71,-1.1,1.197205078505767
336,-0.05,-0.2,1.18,19.76,5.67,-1.22,1.1978731151503483
337,-0.02,-0.18,1.17,24.33,3.26,-2.2,1.1839341197887658
338,-0.01,-0.13,1.15,27.01,0.73,-2.35,1.1573677030226823
339,-0.02,-0.06,1.15,28.05,-1.31,-2.74,1.1517378173872732
340,-0.03,0.01,1.14,26.43,-4.27,-2.68,1.1404385121522334
341,-0.04,0.07,1.13,23.35,-8.57,-2.29,1.1328724553099523
342,-0.04,0.12,1.12,18.48,-11.92,-2.04,1.1271202242884297
343,-0.05,0.13,1.11,13.57,-14.91,-2.01,1.1187046080176841
344,-0.03,0.13,1.09,8.35,-16.37,-1.98,1.0981347822558032
345,-0.01,0.14,1.08,4.39,-16.19,-2.23,1.0890821823902914
346,0.02,0.12,1.08,1.13,-14.3,-2.1,1.086830253535482
347,0.03,0.09,1.06,-0.76,-11.52,-2.2,1.0642368157510809
348,0.06,0.07,1.08,-1.31,-6.77,-1.65,1.0839280418920807
349,0.04,0.03,1.07,-1.43,-5.34,-2.59,1.071167587261676
350,0.05,0.0,1.07,-0.64,-3.57,-3.26,1.071167587261676
351,0.05,-0.0,1.08,2.1,-0.46,-3.63,1.0811567878897121
352,0.05,-0.0,1.05,4.79,1.25,-3.93,1.0511898020814319
353,0.05,-0.0,1.06,6.89,3.14,-3.84,1.0611785900591852
354,0.05,0.02,1.05,10.24,5.82,-2.77,1.0513800454640558
355,0.03,0.04,1.04,11.46,6.43,-1.52,1.0412012293500235
356,0.02,0.04,1.05,13.29,7.59,-0.55,1.050951949424901
357,0.01,0.04,1.05,14.97,7.2,-0.4,1.0508092119885513
358,0.01,0.04,1.05,15.76,6.55,-0.06,1.0508092119885513
359,-0.01,0.05,1.06,16.37,5.21,1.01,1.0612257064357233
360,-0.02,0.06,1.07,16.07,3.96,1.59,1.0718675291284834
361,-0.02,0.05,1.09,14.88,1.77,3.35,1.0913294644606641
362,-0.02,0.05,1.11,13.08,-0.46,3.11,1.1113055385446435
363,-0.03,0.04,1.11,10.0,-4.54,2.47,1.111125555461668
364,-0.03,0.03,1.14,6.22,-7.53,0.67,1.1407892005098925
365,-0.03,0.02,1.14,2.23,-8.75,-1.71,1.1405700329221349
366,-0.02,0.02,1.14,-0.55,-8.99,-2.96,1.1403508232118744
367,-0.02,0.01,1.15,-3.45,-11.4,-3.9,1.1502173707608487
368,-0.03,0.01,1.16,-4.97,-12.62,-4.18,1.1604309544302926
369,-0.03,-0.0,1.16,-4.82,-14.18,-3.35,1.160387866189577
370,-0.01,-0.0,1.16,-4.7,-15.34,-3.87,1.1600431026474836
371,0.01,-0.02,1.15,-1.74,-12.59,-3.63,1.1502173707608487
372,0.02,-0.03,1.13,0.91,-10.49,-2.9,1.1305750749065715
373,0.04,-0.04,1.12,5.52,-7.71,-2.68,1.121427661510095
374,0.04,-0.04,1.1,10.55,-4.76,-1.65,1.1014535850411493
375,0.06,-0.04,1.07,15.64,-2.04,-0.79,1.0724271537032248
376,0.06,-0.02,1.07,20.21,1.59,0.15,1.0718675291284834
377,0.06,0.0,1.04,24.54,3.78,0.61,1.0417293314484335
378,0.05,0.01,1.03,26.95,5.27,1.71,1.0312613635737546
379,0.06,0.02,1.03,28.87,8.48,2.87,1.0319399207318225
380,0.05,0.04,1.02,29.97,10.85,3.41,1.0220078277586724
381,0.03,0.06,1.02,29.76,11.77,3.99,1.0222035022440492
382,0.02,0.07,1.02,28.51,11.65,4.51,1.0225947388873073
383,0.01,0.07,1.06,25.67,12.29,4.91,1.0623558725775464
384,0.01,0.08,1.06,21.89,12.23,4.27,1.0630616162763098
385,-0.01,0.08,1.09,17.41,10.34,4.76,1.092977584399607
386,-0.02,0.09,1.12,12.47,9.57,2.59,1.1237882362794158
387,-0.03,0.08,1.15,7.53,7.84,2.1,1.15316954521007
388,-0.06,0.08,1.16,2.41,1.8,0.98,1.1643023662262308
389,-0.07,0.05,1.19,-0.95,-2.96,0.49,1.1931051923447489
390,-0.05,0.02,1.18,-2.56,-6.49,-0.67,1.181228174401542
391,-0.03,-0.01,1.16,-2.96,-10.43,-1.4,1.1604309544302926
392,-0.01,-0.03,1.15,-2.77,-12.71,-2.53,1.1504347004502253
393,0.0,-0.05,1.14,-1.8,-15.76,-3.11,1.14109596441316
394,0.02,-0.07,1.12,0.15,-17.29,-3.87,1.1223635774560756
395,0.03,-0.07,1.08,2.23,-17.62,-4.79,1.0826818553942799
396,0.05,-0.05,1.05,4.36,-16.52,-5.34,1.0523782589924593
397,0.09,-0.03,1.01,6.22,-13.02,-6.07,1.0144456614328832
398,0.11,-0.01,0.97,7.74,-7.07,-5.73,0.9762684057163787
399,0.12,0.02,0.95,9.36,-0.67,-5.21,0.9577577981932593
400,0.11,0.04,0.94,9.66,4.54,-4.33,0.9472592042308167
401,0.1,0.06,0.96,10.06,10.85,-4.15,0.9670573922989266
402,0.09,0.07,0.97,9.91,15.09,-4.15,0.9766780431646859
403,0.08,0.1,0.99,9.42,18.2,-4.45,0.9982484660644363
404,0.06,0.11,1.01,9.05,20.58,-4.24,1.017742600071354
405,0.02,0.11,1.03,8.35,21.13,-3.75,1.0360501918343532
406,0.0,0.12,1.07,8.05,21.92,-2.59,1.0767079455451232
407,-0.03,0.11,1.09,7.65,20.76,-0.76,1.0959470790143109
408,-0.05,0.1,1.11,7.47,18.14,1.1,1.1156164215356459
409,-0.07,0.05,1.14,7.38,14.21,3.11,1.143241006962224
410,-0.06,0.02,1.14,8.29,9.82,3.32,1.1417530380953667
411,-0.06,-0.02,1.15,9.21,5.03,2.38,1.1517378173872732
412,-0.02,-0.03,1.14,9.3,1.59,0.55,1.1405700329221349
413,-0.0,-0.03,1.11,9.21,-1.22,-0.98,1.110405331399305
414,0.01,-0.03,1.1,8.35,-2.99,-2.01,1.100454451578983
415,0.01,-0.01,1.07,7.35,-4.21,-2.74,1.0700934538627922
416,0.01,0.0,1.07,5.18,-5.4,-3.2,1.0700467279516348
417,0.02,0.02,1.07,3.51,-5.64,-3.32,1.0703737664946764
418,0.03,0.02,1.07,1.83,-4.79,-4.02,1.07060730429042
419,0.03,0.04,1.07,0.24,-4.63,-4.57,1.071167587261676
420,0.03,0.06,1.08,-1.28,-4.15,-4.54,1.082081327812286
421,0.02,0.08,1.06,-2.23,-6.95,-4.73,1.063202708800161
422,0.03,0.07,1.11,-1.74,-0.73,-4.42,1.1126095451684748
423,0.03,0.06,1.08,-0.46,-0.46,-3.38,1.082081327812286
424,0.04,0.06,1.07,1.46,-0.76,-3.2,1.0724271537032248
425,0.05,0.06,1.09,3.78,4.42,-2.77,1.0927945827098522
426,0.06,0.06,1.07,5.73,6.46,-1.95,1.0733592129385205
427,0.04,0.07,1.06,7.38,8.69,-1.49,1.0630616162763098
428,0.05,0.1,1.06,8.75,11.28,-0.49,1.0658799181896619
429,0.02,0.1,1.06,8.99,11.19,0.73,1.0648943609579309
430,0.0,0.11,1.07,9.3,12.04,1.95,1.0756393447619885
431,0.01,0.1,1.08,9.3,12.96,3.29,1.084665847162157
432,0.0,0.08,1.09,8.84,12.74,2.77,1.092931836849856
433,0.01,0.08,1.1,8.78,12.38,3.02,1.1029505881951376
434,-0.01,0.06,1.13,9.05,11.25,2.71,1.1316359838746732
435,-0.03,0.06,1.13,8.84,8.41,2.29,1.13198939924365
436,-0.04,0.04,1.15,8.72,5.55,2.41,1.1513904637437293
437,-0.05,0.03,1.15,8.02,2.68,2.1,1.151477311977965
438,-0.03,0.03,1.15,6.92,0.37,1.34,1.150782342582645
439,-0.02,0.05,1.13,5.21,-1.92,0.4,1.131282458097888
440,-0.01,0.06,1.13,3.05,-4.15,-0.27,1.1316359838746732
441,0.0,0.06,1.11,0.0,-5.03,-1.19,1.1116204388189344
442,-0.0,0.07,1.11,-2.26,-7.53,-2.32,1.1122050170719426
443,-0.01,0.07,1.11,-4.48,-9.05,-2.68,1.1122499719037984
444,-0.01,0.07,1.11,-5.55,-10.24,-3.41,1.1122499719037984
445,-0.0,0.06,1.12,-6.25,-11.1,-4.02,1.1216059914247962
446,0.01,0.06,1.11,-5.18,-10.82,-3.99,1.1116654172906524
447,0.01,0.06,1.1,-3.29,-10.55,-4.48,1.101680534456337
448,0.03,0.06,1.09,-1.46,-9.91,-3.48,1.0920622692868756
449,0.04,0.06,1.09,1.74,-6.04,-2.8,1.092382716816776
450,0.04,0.04,1.06,5.12,-3.72,-1.07,1.061508360777248
451,0.04,0.04,1.06,8.78,-1.16,-0.03,1.061508360777248
452,0.04,0.02,1.06,12.26,1.25,0.03,1.0609429767899876
453,0.04,0.01,1.08,15.7,3.57,0.03,1.0807867504739315
454,0.04,0.01,1.07,18.54,5.06,0.0,1.0707940978544848
455,0.02,0.02,1.08,20.7,5.3,0.27,1.0803703068855603
456,0.01,0.02,1.08,21.65,5.49,0.79,1.0802314566795397
457,0.01,0.04,1.09,21.89,5.06,1.55,1.0907795377618708
458,-0.01,0.06,1.09,20.49,4.27,1.74,1.0916959283610066
459,-0.02,0.08,1.1,17.9,2.9,1.92,1.1030865786510142
460,-0.03,0.09,1.1,14.33,0.73,1.34,1.1040833301884418
461,-0.03,0.09,1.1,10.06,-1.52,0.79,1.1040833301884418
462,-0.03,0.1,1.11,5.34,-4.45,-0.43,1.1148990985734988
463,-0.01,0.09,1.11,1.68,-6.68,-1.83,1.113687568396092
464,-0.01,0.09,1.12,-1.52,-7.8,-2.65,1.123654751247019
465,-0.0,0.09,1.11,-3.72,-8.75,-3.35,1.1136426715962353
466,-0.0,0.09,1.11,-4.76,-8.99,-3.26,1.1136426715962353
467,0.0,0.09,1.11,-5.0,-9.51,-2.9,1.1136426715962353
468,-0.0,0.09,1.1,-4.6,-10.49,-2.74,1.103675676999362
469,-0.0,0.08,1.1,-3.66,-11.77,-2.07,1.102905254316979
470,-0.0,0.09,1.09,-1.92,-11.04,-1.37,1.0937092849564733
471,0.0,0.08,1.08,0.06,-11.68,-0.85,1.0829589096544707
472,0.02,0.06,1.07,2.07,-10.43,-0.18,1.0718675291284834
473,0.03,0.05,1.05,3.99,-8.69,0.58,1.051617801294748
474,0.04,0.03,1.04,6.65,-6.16,1.52,1.0412012293500235
475,0.05,0.03,1.03,8.93,-3.05,1.52,1.031649165171959
476,0.06,0.01,1.02,10.82,-0.09,1.43,1.0218121158021176
477,0.06,-0.0,1.02,13.29,3.32,1.28,1.0217631819555841
478,0.07,-0.0,1.03,15.0,6.31,0.58,1.0323759005323594
479,0.06,0.0,1.03,16.34,8.69,-0.15,1.031746092796091
480,0.05,0.01,1.04,16.98,11.04,-0.55,1.0412492496996097
481,0.04,0.04,1.04,16.65,12.9,-0.82,1.041537325303323
482,0.03,0.08,1.04,15.55,14.02,-0.49,1.0435037134576954
483,-0.0,0.13,1.05,12.53,13.14,0.27,1.0580170130957252
484,-0.01,0.15,1.06,8.35,10.82,0.82,1.07060730429042
485,-0.01,0.16,1.08,3.17,8.72,1.46,1.0918333206126292
486,-0.02,0.18,1.08,-1.86,5.76,1.62,1.0950799057603058
487,-0.03,0.17,1.11,-6.04,2.84,1.59,1.1233432244866215
488,-0.04,0.15,1.11,-8.81,-0.06,1.55,1.120803283364213
489,-0.04,0.13,1.1,-10.4,-2.74,2.35,1.1083771921146701
490,-0.03,0.11,1.12,-10.79,-4.24,2.74,1.1257886124845997
491,-0.02,0.07,1.12,-9.45,-5.34,3.66,1.1223635774560756
492,-0.02,0.05,1.12,-7.41,-6.28,4.05,1.1212938954618454
493,-0.01,0.02,1.12,-4.79,-7.13,4.88,1.1202231920470136
494,0.0,0.0,1.11,-1.19,-7.44,4.82,1.11
495,-0.0,-0.01,1.11,2.74,-8.35,4.66,1.110045044131093
496,0.0,-0.03,1.11,6.07,-9.09,4.15,1.110405331399305
497,0.02,-0.02,1.09,9.42,-8.75,4.15,1.0903669107231748
498,0.03,-0.02,1.08,11.59,-7.62,3.45,1.0806016842481785
499,0.05,0.0,1.07,12.8,-5.98,2.1,1.071167587261676
500,0.06,0.02,1.05,13.48,-3.81,1.37,1.0519030373565808
501,0.06,0.04,1.04,13.93,-1.19,0.37,1.042497002393772
502,0.06,0.05,1.03,14.12,1.74,-0.24,1.0329569206893383
503,0.05,0.06,1.01,14.3,5.18,-0.09,1.013015300970326
504,0.06,0.09,1.01,13.87,7.71,-0.3,1.0157755657624374
505,0.05,0.1,1.0,13.87,9.48,-0.27,1.0062305898749053
506,0.03,0.11,1.0,12.84,11.37,0.34,1.0064790112068904
507,0.0,0.11,1.0,11.95,12.29,1.71,1.0060318086422517
508,-0.01,0.12,1.02,9.63,12.26,2.23,1.0270832488167645
509,-0.01,0.13,1.02,7.2,10.91,2.44,1.0282995672468214
510,-0.01,0.12,1.04,4.36,9.57,2.2,1.0469479452198185
511,-0.01,0.12,1.04,1.46,8.17,1.77,1.0469479452198185
512,-0.02,0.11,1.05,-1.34,5.7,1.31,1.0559356040971437
513,-0.01,0.1,1.07,-4.18,3.96,1.28,1.074709263010234
514,-0.03,0.08,1.07,-5.64,2.68,0.95,1.0734057946554976
515,-0.0,0.07,1.07,-6.8,0.95,1.22,1.0722872749408154
516,0.0,0.05,1.09,-7.44,0.61,0.21,1.091146186356347
517,0.01,0.05,1.08,-7.29,-0.4,-0.21,1.0812030336620408
518,0.01,0.05,1.09,-7.35,-0.91,-1.13,1.0911920087683928
519,0.01,0.05,1.09,-7.38,-1.52,-1.65,1.0911920087683928
520,0.01,0.05,1.09,-6.22,-1.43,-2.26,1.0911920087683928
521,0.01,0.05,1.09,-5.0,-0.88,-2.07,1.0911920087683928
522,0.02,0.05,1.1,-2.77,0.15,-2.1,1.1013173929435602
523,0.03,0.05,1.11,-0.4,1.43,-1.28,1.1115304764152893
524,0.01,0.07,1.11,3.26,2.71,2.38,1.1122499719037984
525,-0.02,0.18,1.11,1.16,-3.63,-1.46,1.1246777316191514
526,0.01,0.13,1.15,5.85,7.29,0.79,1.1573677030226823
527,-0.02,0.15,1.09,6.83,1.25,1.92,1.100454451578983
528,-0.02,0.15,1.09,7.59,1.59,3.45,1.100454451578983
529,-0.01,0.15,1.1,8.87,5.12,4.7,1.1102252023801298
530,-0.0,0.14,1.06,8.93,2.87,5.73,1.0692053123698928
531,-0.02,0.12,1.08,9.63,4.57,6.25,1.086830253535482
532,-0.02,0.1,1.06,9.91,4.05,6.86,1.0648943609579309
533,-0.03,0.08,1.06,9.7,1.95,6.95,1.063437821407533
534,-0.04,0.06,1.06,8.96,1.55,6.86,1.0624499988234741
535,-0.01,0.05,1.05,6.98,1.22,6.55,1.0512373661547614
536,0.01,0.03,1.03,4.48,0.76,5.55,1.0304853225543777
537,0.02,0.02,1.03,2.68,1.16,3.72,1.0303882763308208
538,0.03,0.01,1.03,-0.4,0.46,1.77,1.0304853225543777
539,0.02,0.02,1.02,-3.6,-0.03,-0.67,1.0203920815059278
540,0.02,0.02,1.02,-6.07,-0.15,-2.35,1.0203920815059278
541,0.01,0.03,1.03,-8.32,-0.3,-3.48,1.0304853225543777
542,0.01,0.04,1.03,-9.88,-1.1,-4.39,1.030824912388132
543,0.01,0.05,1.03,-10.21,-0.91,-5.21,1.0312613635737546
544,-0.01,0.06,1.06,-9.3,-1.59,-4.94,1.0617438485811916
545,-0.01,0.07,1.05,-7.87,-2.1,-5.0,1.0523782589924593
546,-0.02,0.09,1.06,-4.94,-2.07,-4.33,1.0640018796975879
547,-0.03,0.08,1.04,-2.1,-6.07,-3.23,1.0435037134576954
548,-0.01,0.1,1.09,2.65,-1.83,-1.98,1.0946232228488486
549,-0.03,0.1,1.08,6.07,-2.1,-0.7,1.085034561661517
550,-0.0,0.1,1.07,8.51,-3.66,1.19,1.0746627377926528
551,0.01,0.09,1.07,10.95,-0.79,2.5,1.0738249391777042
552,0.01,0.08,1.05,12.07,-1.95,3.63,1.0530906893520615
553,0.04,0.1,1.05,12.77,1.98,3.2,1.0555093557141026
554,0.04,0.1,1.04,12.65,6.25,3.57,1.0455620498086187
555,0.04,0.1,1.01,10.61,5.21,3.81,1.0157263410978372
556,0.04,0.09,1.03,9.15,8.29,4.39,1.0346980235798269
557,0.03,0.07,1.03,7.1,10.0,4.12,1.032811696293182
558,0.03,0.05,1.03,5.58,10.18,3.6,1.031649165171959
559,0.03,0.04,1.04,4.3,11.34,3.41,1.0412012293500235
560,0.01,0.03,1.05,1.89,10.37,2.8,1.0504760825454333
561,0.0,0.03,1.06,0.64,9.76,2.13,1.0604244433244643
562,-0.01,0.02,1.08,-0.7,9.15,0.98,1.0802314566795397
563,-0.02,0.02,1.09,-2.2,6.34,-0.09,1.0903669107231748
564,-0.03,0.03,1.1,-3.35,4.63,-0.64,1.1008178777618032
565,-0.03,0.05,1.11,-3.69,2.29,-2.23,1.1115304764152893
566,-0.03,0.04,1.13,-3.23,2.29,-2.93,1.1311056537742175
567,-0.03,0.06,1.12,-2.65,0.4,-2.9,1.122007130102122
568,-0.04,0.06,1.13,-1.86,-0.09,-2.2,1.1322985472038722
569,-0.04,0.08,1.14,-0.61,-0.76,-1.52,1.1435033887138244
570,-0.04,0.07,1.13,1.13,-1.16,-1.04,1.1328724553099523
571,-0.03,0.07,1.13,2.53,-1.92,-0.27,1.1325634640054392
572,-0.02,0.08,1.12,3.81,-1.86,-0.06,1.1230316113093166
573,-0.02,0.08,1.11,4.57,-2.29,0.21,1.113058848399311
574,-0.01,0.09,1.09,4.94,-0.7,0.58,1.0937549999885716
575,0.0,0.1,1.08,5.37,0.7,0.91,1.0846197490365
576,0.01,0.1,1.07,4.97,1.68,1.34,1.074709263010234
577,0.02,0.09,1.07,4.85,4.18,2.16,1.0739646176667088
578,0.01,0.08,1.07,5.0,6.16,2.53,1.0730330842988953
579,0.01,0.08,1.06,4.88,6.83,2.16,1.0630616162763098
580,0.01,0.07,1.08,4.94,8.48,1.89,1.0823123393919152
581,0.0,0.07,1.08,4.97,10.34,1.52,1.082266141020775
582,-0.0,0.07,1.07,4.94,11.52,2.04,1.0722872749408154
583,-0.0,0.07,1.08,5.21,12.71,2.59,1.082266141020775
584,-0.02,0.09,1.1,4.79,12.99,2.71,1.103856874780422
585,-0.04,0.1,1.1,4.51,12.68,3.54,1.105260150371848
586,-0.05,0.09,1.12,3.81,11.04,4.6,1.1247221879201994
587,-0.06,0.08,1.13,3.45,9.45,5.4,1.134416149391395
588,-0.07,0.08,1.14,3.08,7.01,5.61,1.1449454135459909
589,-0.07,0.06,1.15,2.74,4.12,5.61,1.1536897329871665
590,-0.06,0.05,1.16,2.84,1.92,4.97,1.162626337221035
591,-0.05,0.04,1.16,3.02,0.24,4.42,1.161765897244363
592,-0.04,0.05,1.16,3.6,-2.04,3.93,1.161765897244363
593,-0.04,0.05,1.16,4.27,-3.45,3.6,1.161765897244363
594,-0.05,0.04,1.15,5.15,-5.67,3.45,1.1517812292271479
595,-0.05,0.03,1.14,6.16,-7.53,3.45,1.1414902540100813
596,-0.04,0.03,1.14,7.65,-9.21,3.45,1.14109596441316
597,-0.04,0.02,1.13,9.09,-10.3,3.17,1.1308846094982457
598,-0.04,0.01,1.11,10.64,-11.43,2.87,1.110765501804949
599,-0.02,0.01,1.11,12.01,-11.46,2.65,1.1102252023801298
600,-0.01,0.01,1.09,13.32,-11.04,1.8,1.0900917392586738
601,0.01,0.03,1.07,13.84,-10.43,1.22,1.070467187726929
602,0.02,0.04,1.05,13.17,-9.12,0.0,1.050951949424901
603,0.03,0.07,1.03,11.8,-6.83,-0.37,1.032811696293182
604,0.04,0.09,1.01,9.3,-4.88,-0.91,1.0147906187977893
605,0.04,0.12,0.99,6.28,-1.98,-1.4,0.9980480950335009
606,0.03,0.14,0.99,2.1,0.09,-1.31,1.000299955013495
607,0.03,0.14,0.98,-1.89,2.5,-1.28,0.9904039579888602
608,0.03,0.13,0.99,-4.6,4.63,-1.62,0.9989494481704267
609,0.02,0.11,1.01,-6.74,6.16,-1.95,1.0161692772368194
610,0.02,0.1,1.02,-8.23,7.71,-2.68,1.02508536229916
611,0.01,0.08,1.04,-8.17,9.36,-3.08,1.0431203190428227
612,0.0,0.07,1.05,-7.93,10.12,-2.38,1.0523307464861036
613,-0.01,0.06,1.08,-6.8,11.19,-1.37,1.0817116066678771
614,-0.02,0.04,1.1,-4.57,11.04,0.0,1.100908715561831
615,-0.03,0.04,1.12,-2.16,10.34,0.98,1.1211155159036914
616,-0.03,0.02,1.13,0.95,9.21,1.31,1.1305750749065715
617,-0.02,0.01,1.15,4.82,7.53,1.83,1.1502173707608487
618,-0.04,0.01,1.15,8.2,6.4,1.92,1.1507388930595854
619,-0.04,0.02,1.15,11.01,3.45,0.98,1.1508692367076288
620,-0.05,0.03,1.16,13.05,1.77,0.82,1.161464592658769
621,-0.04,0.04,1.15,14.33,-0.58,0.67,1.1513904637437293
622,-0.04,0.05,1.14,14.97,-3.23,0.7,1.1417968295629481
623,-0.04,0.07,1.11,13.9,-9.02,-0.43,1.112924076476019
624,-0.02,0.08,1.13,14.05,-6.16,-0.95,1.1330048543585325
625,-0.02,0.09,1.08,11.37,-8.72,-1.34,1.0839280418920807
626,-0.0,0.09,1.07,7.96,-11.77,-2.44,1.0737783756436894
627,0.0,0.09,1.07,5.43,-9.05,-3.11,1.0737783756436894
628,0.02,0.1,1.04,2.26,-9.18,-3.69,1.0449880382090506
629,0.02,0.1,1.04,-0.64,-8.93,-4.76,1.0449880382090506
630,0.03,0.1,1.04,-2.53,-6.19,-5.24,1.0452272480183435
631,0.03,0.1,1.02,-4.36,-4.7,-5.91,1.025329215423027
632,0.03,0.1,1.02,-5.52,-2.35,-5.79,1.025329215423027
633,0.03,0.1,1.03,-6.07,0.46,-5.67,1.0352777405121776
634,0.02,0.1,1.03,-5.95,1.89,-4.73,1.0350362312499017
635,0.03,0.1,1.04,-5.55,3.41,-3.9,1.0452272480183435
636,-0.01,0.1,1.06,-4.24,5.43,-3.17,1.0647534925981694
637,-0.01,0.09,1.07,-2.93,3.23,-2.74,1.0738249391777042
638,-0.0,0.07,1.08,-1.1,4.7,-2.41,1.082266141020775
639,-0.02,0.07,1.09,1.22,5.21,-2.29,1.0924284873619876
640,0.0,0.06,1.09,3.51,4.12,-1.68,1.0916501271011698
641,-0.0,0.05,1.09,6.22,5.03,-0.73,1.091146186356347
642,-0.01,0.05,1.1,8.45,4.6,-0.58,1.101181184001979
643,-0.01,0.05,1.11,10.4,3.69,0.03,1.1111705539655017
644,-0.01,0.06,1.11,12.2,4.33,0.46,1.1116654172906524
645,-0.0,0.07,1.11,13.35,3.51,0.37,1.1122050170719426
646,-0.02,0.08,1.11,13.72,1.68,-0.12,1.113058848399311
647,-0.03,0.09,1.11,13.93,0.12,0.15,1.1140466776576285
648,-0.03,0.1,1.1,13.23,-1.22,-0.09,1.104943437466371
649,-0.03,0.1,1.09,11.77,-3.29,1.89,1.094988584415381
650,-0.02,0.14,1.1,8.9,-4.27,-1.16,1.1090536506409419
651,-0.01,0.14,1.1,6.4,-3.54,-1.31,1.1089183919477574
652,-0.01,0.15,1.08,2.84,-6.71,-1.86,1.0904127658827183
653,-0.0,0.15,1.09,0.58,-5.91,-1.71,1.1002726934719411
654,-0.01,0.15,1.08,-1.4,-5.24,-1.49,1.0904127658827183
655,-0.01,0.14,1.07,-3.02,-6.68,-1.19,1.079166344916297
656,-0.01,0.13,1.07,-3.6,-6.4,-1.31,1.0779146533933008
657,-0.0,0.11,1.07,-3.84,-6.34,-0.49,1.0756393447619885
658,0.01,0.09,1.06,-2.87,-5.88,-0.61,1.0638608931622593
659,0.02,0.08,1.04,-1.62,-4.54,-0.34,1.0432641084595982
660,0.02,0.05,1.04,-0.55,-3.23,-0.24,1.0413932974625868
661,0.03,0.05,1.03,0.67,-2.04,0.09,1.031649165171959
662,0.04,0.04,1.03,1.92,-0.43,-0.34,1.0315522284402279
663,0.04,0.04,1.03,2.77,1.95,-0.09,1.0315522284402279
664,0.04,0.04,1.02,3.87,2.93,-0.24,1.0215674231297707
665,0.03,0.05,1.02,4.3,4.09,-1.1,1.021665307231287
666,0.03,0.05,1.03,4.73,5.67,-1.22,1.031649165171959
667,0.03,0.06,1.03,4.82,7.38,-1.68,1.0321821544669332
668,0.02,0.07,1.04,4.21,8.26,-1.74,1.042544963059148
669,0.02,0.09,1.07,3.93,8.81,-2.38,1.0739646176667088
670,0.0,0.09,1.09,4.02,11.8,-1.95,1.0937092849564733
671,-0.02,0.11,1.09,3.72,10.82,-1.04,1.0957189420649804
672,-0.03,0.12,1.11,3.2,10.27,-0.67,1.1168706281391771
673,-0.04,0.14,1.11,2.13,8.26,-0.67,1.1195088208674375
674,-0.04,0.16,1.12,0.76,6.37,-0.21,1.1320777358467924
675,-0.04,0.16,1.12,-0.52,3.69,0.03,1.1320777358467924
676,-0.05,0.16,1.13,-1.71,1.71,0.64,1.1423659658795862
677,-0.05,0.15,1.12,-2.04,-0.98,1.46,1.1311056537742175
678,-0.04,0.14,1.13,-2.32,-3.38,2.38,1.1393419153177855
679,-0.04,0.11,1.12,-1.65,-4.88,3.02,1.1260994627474077
680,-0.03,0.1,1.12,-0.58,-6.22,3.35,1.124855546281388
681,-0.02,0.09,1.11,1.4,-6.74,3.32,1.113822247937255
682,-0.03,0.08,1.1,2.71,-7.84,3.75,1.1033131921625883
683,-0.03,0.07,1.09,4.39,-8.02,3.84,1.092657311328671
684,-0.01,0.07,1.07,6.1,-7.8,4.36,1.0723339032223125
685,-0.01,0.06,1.06,7.5,-8.93,3.93,1.0617438485811916
686,-0.0,0.05,1.05,8.45,-9.33,3.93,1.0511898020814319
687,0.01,0.04,1.04,9.91,-8.17,3.69,1.0408169867945085
688,0.02,0.04,1.02,10.67,-7.47,2.93,1.0209799214480175
689,0.05,0.04,1.01,10.95,-6.31,1.83,1.01202766760598
690,0.05,0.05,1.0,11.13,-3.32,1.1,1.002496882788171
691,0.06,0.07,0.99,10.55,0.0,0.3,0.9942836617384396
692,0.05,0.08,0.98,8.78,1.95,0.18,0.9845303448853163
693,0.05,0.09,0.98,6.71,4.76,-0.27,0.985393322486001
694,0.04,0.1,0.99,4.15,6.13,-0.49,0.9958413528268446
695,0.03,0.1,1.0,1.19,7.8,-1.04,1.0054352291420865
696,0.03,0.1,1.01,-1.4,9.6,-1.55,1.0153817016275208
697,0.01,0.09,1.02,-3.41,9.3,-2.23,1.0240117186829456
698,0.01,0.08,1.03,-5.24,9.82,-2.8,1.0331505214633538
699,0.0,0.07,1.05,-6.04,10.06,-3.54,1.0523307464861036
700,-0.01,0.07,1.06,-7.16,8.93,-3.54,1.0623558725775464
701,-0.02,0.07,1.09,-7.71,7.71,-3.38,1.0924284873619876
702,-0.02,0.07,1.09,-7.68,7.23,-3.29,1.0924284873619876
703,-0.02,0.07,1.1,-7.96,5.82,-3.54,1.1024064586167845
704,-0.04,0.08,1.1,-8.6,3.69,-3.26,1.1036303729057118
705,-0.03,0.08,1.12,-8.23,1.52,-3.08,1.1232542009714455
706,-0.04,0.08,1.12,-7.77,0.58,-2.99,1.1235657524150513
707,-0.03,0.08,1.12,-6.98,-0.91,-3.29,1.1232542009714455
708,-0.03,0.08,1.13,-5.34,-1.07,-2.93,1.1332254850646448
709,-0.03,0.07,1.13,-3.38,-2.41,-2.26,1.1325634640054392
710,-0.03,0.06,1.13,-0.55,-2.96,-1.71,1.13198939924365
711,-0.02,0.05,1.13,3.35,-2.74,-0.67,1.131282458097888
712,-0.01,0.04,1.12,6.92,-2.29,0.0,1.1207586716149023
713,-0.01,0.04,1.11,10.61,-1.89,0.49,1.110765501804949
714,-0.0,0.05,1.1,13.66,-1.52,0.43,1.101135777277262
715,-0.02,0.06,1.09,16.22,-1.49,1.13,1.0918333206126292
716,-0.0,0.08,1.06,17.68,-0.34,1.59,1.063014581273465
717,-0.0,0.09,1.04,17.84,-1.22,1.92,1.0438869670610895
718,0.0,0.1,1.04,16.55,0.03,2.41,1.0447966309287182
719,0.0,0.11,1.01,13.93,0.46,2.26,1.0159724405711013
720,0.02,0.12,1.0,11.01,1.43,1.55,1.0073728207570423
721,0.03,0.12,0.99,7.1,2.93,1.13,0.9976973488989535
722,0.02,0.12,0.99,2.47,3.6,0.18,0.9974467404327912
723,0.02,0.11,1.0,-1.83,4.79,-0.3,1.0062305898749053
724,0.02,0.11,1.01,-5.7,5.61,-0.79,1.0161692772368194
725,0.01,0.1,1.02,-9.21,5.3,-1.65,1.0249390225764652
726,0.0,0.09,1.04,-11.74,5.27,-2.41,1.0438869670610895
727,0.0,0.07,1.06,-12.96,5.3,-2.77,1.0623088063270492
728,0.0,0.06,1.08,-13.57,5.4,-3.66,1.0816653826391969
729,-0.0,0.05,1.1,-12.53,5.12,-4.12,1.101135777277262
730,-0.01,0.04,1.12,-11.04,5.03,-4.51,1.1207586716149023
731,-0.0,0.05,1.12,-9.09,4.97,-4.6,1.1211155159036914
732,-0.0,0.05,1.14,-6.71,4.48,-3.81,1.14109596441316
733,-0.03,0.05,1.15,-3.99,3.87,-2.74,1.151477311977965
734,-0.04,0.04,1.15,-0.64,2.68,-1.8,1.1513904637437293
735,-0.04,0.04,1.14,2.71,0.98,-1.1,1.141402645870422
736,-0.03,0.03,1.15,6.13,-0.61,-0.46,1.150782342582645
737,-0.02,0.03,1.15,9.54,-0.98,-0.73,1.150565078559227
738,-0.03,0.03,1.14,12.38,-1.16,-0.21,1.1407892005098925
739,-0.01,0.04,1.13,14.42,-1.62,-0.27,1.130751962191532
740,-0.02,0.06,1.11,15.52,-2.38,0.15,1.1118003417880389
741,-0.03,0.07,1.12,16.04,-2.26,0.15,1.122586299577899
742,-0.03,0.08,1.09,15.21,-3.6,0.3,1.0933434958877288
743,-0.02,0.09,1.08,13.6,-4.39,-0.27,1.0839280418920807
744,-0.01,0.1,1.08,11.8,-4.3,-0.79,1.084665847162157
745,-0.01,0.11,1.06,9.45,-3.72,-1.34,1.0657391800998968
746,-0.0,0.12,1.04,6.28,-4.33,-1.49,1.046900186264192
747,0.01,0.11,1.03,3.35,-3.08,-1.8,1.035905401086412
748,0.01,0.12,1.02,-0.34,-3.41,-1.98,1.0270832488167645
749,0.01,0.11,1.03,-3.48,-2.47,-2.71,1.035905401086412
750,0.01,0.1,1.02,-6.34,-1.31,-2.96,1.0249390225764652
751,0.03,0.1,1.03,-8.96,-0.12,-3.32,1.0352777405121776
752,0.02,0.09,1.04,-10.3,0.91,-4.02,1.0440785411069418
753,0.01,0.07,1.04,-11.1,2.01,-4.54,1.042401074443038
754,0.0,0.06,1.06,-10.55,2.8,-4.45,1.06169675519896
755,-0.01,0.05,1.07,-9.57,2.68,-4.36,1.0712142642814275
756,-0.01,0.04,1.08,-7.5,3.63,-4.21,1.0807867504739315
757,-0.01,0.04,1.1,-5.0,3.99,-4.02,1.10077245605075
758,-0.02,0.02,1.1,-1.8,4.51,-4.24,1.1003635762783137
759,-0.01,0.01,1.11,1.74,5.03,-3.66,1.1100900864344299
760,-0.01,0.02,1.12,5.7,6.34,-3.17,1.1202231920470136
761,-0.02,0.02,1.13,9.02,6.01,-2.96,1.1303539268742333
762,-0.02,0.03,1.12,12.16,6.04,-3.11,1.1205802068571442
763,-0.03,0.05,1.12,14.45,5.7,-2.8,1.1215168300119265
764,-0.04,0.08,1.12,15.73,5.03,-2.29,1.1235657524150513
765,-0.04,0.11,1.12,15.73,4.12,-2.04,1.1260994627474077
766,-0.06,0.13,1.11,14.7,2.71,-1.46,1.1191961400934156
767,-0.07,0.11,1.08,13.23,-1.71,2.56,1.087841900277793
768,-0.04,0.14,1.12,9.6,-3.26,-0.88,1.1294246322796402
769,-0.05,0.14,1.09,7.2,-0.24,-0.79,1.1000909053346455
770,-0.06,0.15,1.07,3.05,-6.25,-1.28,1.0821275340735028
771,-0.04,0.15,1.08,-0.18,-5.64,-1.28,1.0911003620199198
772,-0.03,0.13,1.06,-2.59,-4.94,-1.13,1.0683632341109461
773,-0.03,0.12,1.05,-5.82,-7.16,-1.8,1.057260611202366
774,-0.02,0.11,1.05,-7.84,-6.37,-1.77,1.0559356040971437
775,-0.02,0.11,1.04,-9.45,-5.76,-1.86,1.0459923517884824
776,-0.02,0.08,1.04,-10.12,-5.7,-1.95,1.0432641084595982
777,-0.02,0.06,1.04,-9.39,-4.24,-1.71,1.0419213022104885
778,-0.01,0.05,1.04,-8.08,-3.69,-1.71,1.0412492496996097
779,-0.0,0.04,1.03,-5.76,-2.68,-1.68,1.0307764064044151
780,-0.0,0.03,1.03,-3.54,-1.22,-1.28,1.0304368005850721
781,0.01,0.03,1.04,-0.82,0.49,-1.01,1.0404806581575652
782,0.01,0.04,1.04,1.83,2.26,-0.95,1.0408169867945085
783,0.01,0.06,1.04,3.96,3.6,-0.43,1.0417773274553446
784,0.0,0.05,1.04,5.91,4.48,-0.21,1.0412012293500235
785,0.0,0.05,1.05,8.08,5.24,0.18,1.0511898020814319
786,0.0,0.05,1.06,10.4,7.01,0.95,1.0611785900591852
787,-0.01,0.05,1.05,11.83,8.11,0.91,1.0512373661547614
788,-0.01,0.06,1.06,13.11,8.32,0.58,1.0617438485811916
789,-0.01,0.06,1.06,13.72,8.05,0.03,1.0617438485811916
790,-0.02,0.07,1.06,13.75,8.6,-0.03,1.0624970588194587
791,-0.02,0.08,1.06,12.8,8.14,0.0,1.063202708800161
792,-0.02,0.09,1.06,11.13,7.8,0.3,1.0640018796975879
793,-0.03,0.1,1.07,8.51,7.35,0.21,1.0750813922675808
794,-0.04,0.1,1.07,5.55,5.52,0.7,1.0754068997360953
795,-0.05,0.09,1.07,2.44,3.78,0.7,1.0749418588928425
796,-0.05,0.08,1.07,-0.61,1.16,0.37,1.0741508273980893
797,-0.04,0.07,1.07,-3.63,-0.95,-0.06,1.0730330842988953
798,-0.03,0.06,1.07,-5.67,-1.86,-1.19,1.072100741535048
799,-0.03,0.04,1.07,-8.05,-2.68,-2.56,1.071167587261676
800,-0.01,0.03,1.06,-9.63,-3.99,-4.05,1.0604715932074749
801,-0.02,0.03,1.04,-10.82,-5.61,-5.27,1.0406248123122954
802,-0.01,0.03,1.03,-11.74,-6.43,-5.88,1.0304853225543777
803,-0.0,0.02,1.02,-12.01,-6.1,-6.37,1.020196059588548
804,0.01,0.02,1.01,-11.62,-5.55,-6.95,1.010247494428964
805,0.02,0.02,1.01,-11.07,-3.48,-7.13,1.0103959619871805
806,0.02,0.04,1.01,-10.3,-1.59,-7.65,1.0109896141899777
807,0.04,0.04,1.0,-8.45,0.15,-7.62,1.001598722043913
808,0.02,0.05,1.01,-6.13,3.23,-7.65,1.0114346246792225
809,0.02,0.05,1.01,-4.54,3.96,-5.46,1.0114346246792225
810,-0.01,0.1,1.02,-3.45,3.14,-7.23,1.0249390225764652
811,0.03,0.06,1.07,1.19,11.52,-6.16,1.072100741535048
812,0.01,0.05,1.06,4.15,12.59,-5.03,1.0612257064357233
813,0.01,0.06,1.08,7.26,13.69,-4.51,1.0817116066678771
814,0.0,0.06,1.09,10.85,17.1,-3.87,1.0916501271011698
815,-0.0,0.07,1.1,13.02,17.47,-3.23,1.102225022397877
816,-0.03,0.08,1.11,14.3,17.38,-2.5,1.1132834320154057
817,-0.04,0.09,1.12,14.42,17.04,-1.8,1.1243220179290274
818,-0.06,0.11,1.11,13.48,15.61,-1.07,1.1170496855556606
819,-0.05,0.12,1.12,10.49,13.08,-1.34,1.1275194011634568
820,-0.05,0.13,1.12,7.59,11.55,-1.37,1.1286274850454423
821,-0.06,0.12,1.12,3.51,8.66,-1.98,1.128007092176286
822,-0.06,0.11,1.13,-0.21,5.88,-1.92,1.1369256791892774
823,-0.08,0.1,1.13,-3.51,3.29,-2.53,1.1372334852614918
824,-0.05,0.08,1.13,-6.22,0.49,-2.9,1.1339312148450627
825,-0.06,0.07,1.13,-8.05,-1.4,-3.6,1.1337548235840056
826,-0.03,0.05,1.13,-9.76,-3.29,-4.7,1.1315034246523514
827,-0.03,0.05,1.13,-10.3,-4.73,-5.52,1.1315034246523514
828,-0.03,0.03,1.12,-10.18,-5.76,-5.7,1.120803283364213
829,-0.04,-0.0,1.11,-9.42,-8.45,-5.12,1.1107204868912792
830,-0.03,0.04,1.11,-7.93,-7.5,-6.86,1.111125555461668
831,-0.03,0.02,1.11,-5.7,-3.87,-7.16,1.110585431202841
832,-0.02,0.03,1.1,-3.87,-5.49,-6.83,1.1005907504608605
833,-0.01,0.03,1.1,-0.61,-3.41,-7.38,1.100454451578983
834,-0.01,0.04,1.1,2.47,-2.1,-6.46,1.10077245605075
835,-0.01,0.06,1.08,4.91,-0.21,-6.37,1.0817116066678771
836,-0.01,0.08,1.08,7.41,0.79,-5.55,1.0830050784737808
837,-0.01,0.09,1.07,8.66,2.07,-4.97,1.0738249391777042
838,-0.0,0.1,1.06,9.15,3.23,-4.73,1.0647065323364933
839,-0.0,0.1,1.05,9.82,4.91,-4.27,1.0547511554864493
840,-0.0,0.11,1.05,9.54,6.52,-3.75,1.0557461816175326
841,-0.01,0.12,1.05,9.12,9.3,-3.75,1.0568822072492279
842,-0.01,0.12,1.04,8.6,10.4,-3.99,1.0469479452198185
843,-0.0,0.12,1.05,7.13,11.43,-3.81,1.0568348972285122
844,-0.02,0.13,1.05,5.67,12.96,-3.99,1.0582060290888538
845,-0.03,0.13,1.05,3.14,13.26,-3.17,1.0584422516131904
846,-0.04,0.13,1.06,1.07,13.29,-2.71,1.0686907878334126
847,-0.04,0.12,1.07,-1.07,13.81,-2.26,1.0774506949276148
848,-0.05,0.12,1.07,-3.29,13.66,-2.5,1.0778682665335315
849,-0.04,0.12,1.07,-5.55,13.66,-1.95,1.0774506949276148
850,-0.04,0.11,1.07,-7.71,13.08,-2.2,1.0763828315241748
851,-0.05,0.1,1.06,-9.57,12.87,-1.86,1.0658799181896619
852,-0.04,0.1,1.07,-11.31,11.68,-1.04,1.0754068997360953
853,-0.04,0.05,1.06,-12.41,8.45,1.68,1.0619322012256716
854,-0.06,0.1,1.07,-15.15,6.71,0.61,1.0763363786474933
855,-0.02,0.05,1.11,-14.09,11.31,-0.79,1.1113055385446435
856,-0.06,0.04,1.08,-15.67,7.62,-0.82,1.0824047302187847
857,-0.05,0.05,1.09,-15.79,5.76,-1.31,1.092291169972549
858,-0.05,0.02,1.1,-15.49,4.12,-2.47,1.1013173929435602
859,-0.08,0.02,1.11,-16.13,0.64,-1.34,1.113058848399311
860,-0.06,0.01,1.12,-15.52,-1.16,-4.18,1.121650569473399
861,-0.05,-0.0,1.15,-13.35,-0.15,-5.03,1.1510864433221337
862,-0.06,0.04,1.13,-11.43,-2.07,-4.76,1.1322985472038722
863,-0.08,0.0,1.14,-10.52,-3.78,-6.74,1.1428035701729322
864,-0.06,0.03,1.15,-7.74,-2.38,-6.34,1.1519548602267364
865,-0.07,0.03,1.14,-5.27,-1.74,-6.13,1.1425410277097274
866,-0.05,0.07,1.13,-1.28,-0.7,-5.52,1.133269606051446
867,-0.05,0.06,1.13,0.73,-0.85,-5.55,1.1326958991715295
868,-0.03,0.08,1.12,3.48,0.3,-5.58,1.1232542009714455
869,-0.04,0.1,1.1,5.24,0.12,-4.82,1.105260150371848
870,-0.05,0.1,1.08,6.28,1.37,-3.69,1.0857716150277645
871,-0.05,0.11,1.07,7.26,2.13,-2.59,1.0768008172359453
872,-0.04,0.12,1.06,7.01,1.92,-2.16,1.0675204916066015
873,-0.04,0.11,1.06,6.74,1.34,-0.73,1.0664426848171449
874,-0.04,0.12,1.05,5.55,0.18,0.24,1.0575916035975323
875,-0.04,0.09,1.05,4.21,-0.12,0.4,1.0546089322587782
876,-0.03,0.11,1.05,3.35,-1.13,1.92,1.0561723344227494
877,-0.05,0.08,1.05,1.65,-1.68,1.07,1.054229576515476
878,-0.04,0.09,1.06,0.82,-2.1,2.5,1.0645656391223606
879,-0.06,0.06,1.06,-0.21,-3.78,2.77,1.0633908030446757
880,-0.04,0.08,1.05,-0.85,-4.3,3.81,1.0538026380684384
881,-0.06,0.09,1.06,-0.46,-4.42,5.85,1.0655045753069294
882,-0.07,0.09,1.05,-3.2,-7.93,6.95,1.0561723344227494
883,-0.09,0.04,1.06,-2.74,-9.09,2.96,1.0645656391223606
884,-0.05,0.08,1.06,-2.26,-8.48,4.42,1.0641898326896382
885,-0.06,0.07,1.07,-3.2,-9.27,3.29,1.0739646176667088
886,-0.04,0.06,1.06,-2.07,-10.37,3.81,1.0624499988234741
887,-0.04,0.05,1.08,-2.38,-10.0,3.2,1.0818964830333815
888,-0.04,0.05,1.09,-0.46,-8.96,2.56,1.091879114188013
889,-0.02,0.06,1.07,0.88,-7.84,1.52,1.0718675291284834
890,-0.01,0.08,1.08,1.71,-7.26,1.04,1.0830050784737808
891,-0.02,0.08,1.07,2.68,-6.16,0.82,1.0731728658515365
892,-0.02,0.07,1.08,3.45,-5.95,1.16,1.0824509226750192
893,-0.03,0.07,1.09,4.05,-4.91,1.13,1.092657311328671
894,-0.03,0.08,1.08,4.09,-4.88,1.65,1.0833743581975717
895,-0.04,0.09,1.08,4.12,-5.52,1.19,1.0844814429025516
896,-0.03,0.08,1.07,4.15,-5.98,0.64,1.0734057946554976
897,-0.02,0.09,1.07,3.32,-6.86,0.49,1.0739646176667088
898,-0.02,0.08,1.07,3.38,-6.74,0.55,1.0731728658515365
899,-0.01,0.08,1.06,2.77,-6.37,0.43,1.0630616162763098
900,-0.01,0.08,1.07,2.47,-5.98,0.4,1.0730330842988953
901,-0.02,0.08,1.07,2.01,-6.07,0.61,1.0731728658515365
902,-0.02,0.08,1.06,1.16,-5.7,1.1,1.063202708800161
903,-0.02,0.08,1.07,1.04,-5.55,1.13,1.0731728658515365
904,-0.03,0.08,1.07,0.58,-5.73,1.19,1.0734057946554976
905,-0.02,0.07,1.07,0.46,-5.49,2.01,1.0724737759031686
906,-0.02,0.07,1.07,0.64,-4.79,1.83,1.0724737759031686
907,-0.01,0.07,1.07,0.58,-4.09,1.98,1.0723339032223125
908,-0.01,0.06,1.07,0.43,-3.75,1.89,1.0717275773255068
909,-0.01,0.07,1.08,0.52,-3.29,1.86,1.0823123393919152
910,-0.02,0.07,1.08,0.98,-2.53,1.98,1.0824509226750192
911,-0.01,0.07,1.09,1.74,-2.35,2.41,1.092291169972549
912,-0.01,0.07,1.09,2.41,-2.68,3.08,1.092291169972549
913,-0.02,0.07,1.09,2.87,-3.29,3.75,1.0924284873619876
914,-0.02,0.07,1.09,2.07,-3.81,4.45,1.0924284873619876
915,-0.19,-0.15,0.99,-0.91,-10.95,7.04,1.0191663259743229
916,0.02,0.01,1.14,3.57,-0.58,4.76,1.1402192771568107
917,-0.02,0.03,1.04,4.6,-1.34,4.63,1.0406248123122954
918,-0.01,0.05,1.07,3.41,-4.27,4.21,1.0712142642814275
919,0.0,0.04,1.07,5.27,-3.14,4.02,1.0707474025184465
920,-0.01,0.05,1.07,4.33,-2.71,4.3,1.0712142642814275
921,-0.01,0.03,1.07,3.05,-2.41,2.9,1.070467187726929
922,-0.0,0.04,1.06,2.71,-2.44,2.38,1.0607544484940896
923,-0.01,0.06,1.06,1.4,-3.93,2.62,1.0617438485811916
924,-0.01,0.05,1.07,0.91,-4.97,3.14,1.0712142642814275
925,-0.01,0.1,1.05,-2.62,-4.42,1.49,1.0547985589675406
926,0.01,0.08,1.07,-1.13,-0.3,0.67,1.0730330842988953
927,-0.02,0.09,1.04,-4.12,-2.93,1.43,1.0440785411069418
928,-0.01,0.11,1.06,-4.88,-2.35,1.55,1.0657391800998968
929,-0.02,0.11,1.06,-6.19,-2.01,2.29,1.0658799181896619
930,-0.03,0.11,1.05,-7.16,-4.45,3.72,1.0561723344227494
931,-0.0,0.15,1.07,-7.77,-2.29,3.93,1.0804628637764464
932,-0.02,0.13,1.07,-6.86,-0.88,5.82,1.0780538019969135
933,-0.02,0.07,1.06,-9.94,-2.38,5.43,1.0624970588194587
934,-0.02,0.1,1.08,-9.48,-1.59,5.91,1.0848041297856494
935,-0.03,0.08,1.1,-8.75,0.24,6.43,1.1033131921625883
936,-0.03,0.09,1.08,-7.71,-0.95,8.02,1.084158659975559
937,-0.02,0.05,1.09,-6.83,-0.67,7.59,1.0913294644606641
938,-0.01,0.04,1.09,-4.48,0.37,8.6,1.0907795377618708
939,-0.01,0.03,1.1,-1.65,1.86,8.81,1.100454451578983
940,-0.0,0.03,1.09,1.22,2.13,9.33,1.0904127658827183
941,-0.01,0.01,1.1,2.9,2.26,8.96,1.1000909053346455
942,-0.01,0.0,1.09,5.98,2.74,9.57,1.0900458705944445
943,-0.03,0.01,1.1,8.45,2.44,10.0,1.100454451578983
944,-0.01,0.15,1.1,14.05,3.48,17.74,1.1102252023801298
945,-0.03,-0.12,1.08,11.65,1.07,6.4,1.0870602559196063
946,-0.02,0.0,1.08,12.44,2.68,9.54,1.080185169311262
947,-0.01,-0.02,1.09,10.06,-1.37,7.99,1.0902293336725077
948,0.02,0.03,1.1,22.5,2.23,13.38,1.1005907504608605
949,0.04,-0.16,1.08,12.71,6.68,4.57,1.092520022699813
950,-0.1,0.09,1.07,8.05,-0.43,5.34,1.078424777163433
951,-0.0,0.09,1.1,9.54,6.49,1.16,1.103675676999362
952,-0.04,0.08,1.05,6.62,2.41,1.4,1.0538026380684384
953,-0.04,0.11,1.06,2.77,-0.06,0.12,1.0664426848171449
954,-0.02,0.11,1.06,-0.34,-0.43,-0.82,1.0658799181896619
955,-0.03,0.12,1.05,-4.57,-3.08,-0.76,1.057260611202366
956,-0.03,0.11,1.04,-7.93,-4.7,-0.55,1.0462313319720453
957,-0.03,0.05,0.99,-14.63,-20.85,1.4,0.9917156850630123
958,0.05,0.09,1.08,-10.52,-5.43,-2.16,1.0848963084092416
959,0.03,0.05,1.09,-9.3,0.0,-2.1,1.091558518816101
960,-0.03,0.03,1.02,-14.6,-7.13,-1.71,1.0208819716304134
961,0.03,0.04,1.05,-11.46,-6.13,-0.85,1.0511898020814319
962,-0.0,-0.02,1.07,-10.85,-4.79,-1.77,1.0701868995647443
963,0.03,0.02,1.04,-5.58,-3.75,0.49,1.0406248123122954
964,-0.0,-0.06,1.05,-6.62,-2.71,-2.74,1.0517128885774862
965,0.0,-0.02,1.05,-5.03,-0.88,-2.84,1.0501904589168576
966,0.01,-0.01,1.06,-1.77,3.2,-3.72,1.0600943354249188
967,0.01,-0.0,1.03,-0.52,4.66,-3.78,1.030048542545447
968,0.0,0.01,1.04,-0.43,5.61,-4.18,1.0400480758118829
969,0.0,0.01,1.04,0.46,7.74,-5.06,1.0400480758118829
970,-0.01,0.02,1.04,-0.06,9.36,-5.55,1.040240356840668
971,-0.01,0.03,1.04,-0.09,10.24,-5.79,1.0404806581575652
972,-0.02,0.04,1.05,-0.95,11.1,-5.64,1.050951949424901
973,-0.02,0.06,1.05,-1.52,11.98,-5.49,1.0519030373565808
974,-0.04,0.06,1.05,-2.1,12.5,-5.09,1.0524732775705044
975,-0.04,0.07,1.06,-2.62,12.44,-4.27,1.0630616162763098
976,-0.05,0.08,1.08,-3.29,11.92,-2.99,1.084112540283526
977,-0.05,0.08,1.08,-3.69,10.18,-2.2,1.084112540283526
978,-0.06,0.07,1.09,-4.09,8.32,-1.77,1.0938921336219583
979,-0.06,0.07,1.1,-3.51,6.71,-0.67,1.103856874780422
980,-0.06,0.07,1.12,-2.74,5.37,-0.27,1.1237882362794158
981,-0.06,0.08,1.12,-0.82,3.11,1.34,1.1244554237496478
982,-0.07,0.04,1.13,-1.95,-0.18,0.88,1.1328724553099523
983,-0.06,0.04,1.12,-0.12,-1.19,1.25,1.122319027727856
984,-0.05,0.05,1.12,1.8,-2.29,1.13,1.1222299229658779
985,-0.05,0.04,1.1,3.38,-4.36,1.68,1.1018620603324176
986,-0.02,0.03,1.1,4.12,-4.09,1.43,1.1005907504608605
987,-0.03,0.03,1.1,4.79,-3.66,0.95,1.1008178777618032
988,-0.03,0.04,1.09,5.52,-3.35,1.01,1.091146186356347
989,-0.03,0.04,1.09,5.61,-3.11,0.76,1.091146186356347
990,-0.03,0.04,1.08,6.01,-2.38,0.7,1.0811567878897121
991,-0.03,0.03,1.07,4.39,-1.49,-0.06,1.0708407911543154
992,-0.02,0.05,1.06,3.6,-1.46,-0.4,1.0613670430157516
993,-0.02,0.04,1.07,2.35,0.4,-0.91,1.0709341716464182
994,-0.02,0.05,1.06,1.4,1.25,-0.98,1.0613670430157516
995,-0.01,0.04,1.07,0.37,2.35,-1.28,1.0707940978544848
996,-0.02,0.04,1.06,-0.55,3.14,-1.65,1.0609429767899876
997,-0.02,0.04,1.06,-1.13,4.12,-1.92,1.0609429767899876
998,-0.01,0.04,1.07,-1.62,4.88,-2.04,1.0707940978544848
999,-0.01,0.04,1.07,-1.92,5.76,-2.2,1.0707940978544848
1000,-0.01,0.04,1.07,-1.8,6.68,-2.23,1.0707940978544848
1001,-0.03,0.04,1.08,-1.4,7.68,-1.71,1.0811567878897121
1002,-0.04,0.03,1.08,-0.55,7.96,-1.13,1.0811567878897121
1003,-0.04,0.02,1.09,0.15,7.38,-0.58,1.0909170454255448
1004,-0.05,0.03,1.1,1.37,7.1,0.09,1.101544370418187
1005,-0.05,0.03,1.1,2.13,6.71,0.06,1.101544370418187
1006,-0.04,0.04,1.11,2.84,6.28,0.4,1.1114405067298925
1007,-0.04,0.04,1.11,3.81,5.4,0.03,1.1114405067298925
1008,-0.05,0.04,1.11,4.02,4.45,-0.03,1.1118453129819814
1009,-0.05,0.04,1.12,4.27,2.71,0.27,1.1218288639538565
1010,-0.06,0.04,1.11,4.63,1.95,0.37,1.1123398761170078
1011,-0.06,0.05,1.1,4.02,0.27,-0.03,1.102769241500687
1012,-0.06,0.05,1.1,3.51,-0.98,-0.21,1.102769241500687
1013,-0.05,0.06,1.1,2.26,-1.74,-0.4,1.102769241500687
1014,-0.04,0.06,1.1,0.82,-2.29,-1.37,1.1023611023616537
1015,-0.04,0.06,1.09,-0.09,-2.47,-1.1,1.092382716816776
1016,-0.04,0.06,1.09,-1.13,-2.41,-1.16,1.092382716816776
1017,-0.04,0.05,1.08,-1.95,-3.14,-1.74,1.0818964830333815
1018,-0.04,0.05,1.07,-2.35,-2.56,-1.34,1.0719141756689292
1019,-0.03,0.05,1.07,-2.84,-3.48,-1.46,1.0715876072445034
1020,-0.03,0.04,1.07,-2.9,-2.74,-1.49,1.071167587261676
1021,-0.02,0.04,1.06,-2.16,-1.92,-1.28,1.0609429767899876
1022,-0.03,0.04,1.07,-1.68,-1.34,-1.49,1.071167587261676
1023,-0.03,0.04,1.06,-0.85,-0.98,-1.16,1.0611785900591852
1024,-0.03,0.03,1.06,0.4,-0.21,-1.01,1.0608487168300673
1025,-0.02,0.02,1.06,1.59,0.98,-0.58,1.060377291344925
1026,-0.02,0.02,1.06,2.62,1.43,-0.12,1.060377291344925
1027,-0.01,0.02,1.06,3.84,2.53,0.18,1.0602358228243376
1028,-0.01,0.02,1.06,5.18,4.21,0.09,1.0602358228243376
1029,-0.02,0.01,1.06,6.04,5.09,0.55,1.0602358228243376
1030,-0.0,0.02,1.06,6.55,5.91,0.09,1.0601886624558858
1031,-0.0,0.02,1.06,7.16,6.8,-0.21,1.0601886624558858
1032,-0.01,0.03,1.07,7.2,7.47,-0.52,1.070467187726929
1033,-0.03,0.04,1.06,6.55,7.41,-0.85,1.0611785900591852
1034,-0.03,0.05,1.05,4.97,6.95,-1.1,1.051617801294748
1035,-0.04,0.04,1.06,3.51,6.59,-1.4,1.061508360777248
1036,-0.02,0.04,1.05,1.07,6.46,-1.74,1.050951949424901
1037,-0.03,0.05,1.06,-1.16,6.55,-2.01,1.0616025621672172
1038,-0.03,0.06,1.06,-3.41,6.31,-2.32,1.0621205204683695
1039,-0.03,0.06,1.07,-5.7,6.34,-2.35,1.072100741535048
1040,-0.04,0.06,1.06,-6.86,6.19,-3.35,1.0624499988234741
1041,-0.04,0.07,1.07,-9.18,5.7,-3.38,1.0730330842988953
1042,-0.04,0.06,1.07,-10.0,5.09,-3.63,1.0724271537032248
1043,-0.03,0.07,1.09,-10.76,5.37,-4.18,1.092657311328671
1044,-0.05,0.06,1.09,-11.34,3.9,-3.78,1.0927945827098522
1045,-0.05,0.06,1.1,-10.73,3.14,-3.9,1.102769241500687
1046,-0.05,0.05,1.09,-9.63,2.87,-3.17,1.092291169972549
1047,-0.06,0.05,1.11,-8.63,1.74,-2.41,1.1127443551867608
1048,-0.06,0.04,1.11,-6.37,1.28,-1.86,1.1123398761170078
1049,-0.05,0.02,1.12,-3.48,0.3,-1.1,1.1212938954618454
1050,-0.05,0.01,1.11,-1.19,-0.85,-0.67,1.1111705539655017
1051,-0.04,0.01,1.11,1.98,-1.1,-0.15,1.110765501804949
1052,-0.04,0.01,1.1,5.0,-0.95,-0.24,1.10077245605075
1053,-0.03,0.01,1.1,7.35,-1.71,-0.21,1.100454451578983
1054,-0.03,0.0,1.09,10.15,-1.68,-0.18,1.0904127658827183
1055,-0.03,0.0,1.09,12.35,-1.59,0.55,1.0904127658827183
1056,-0.05,0.01,1.08,13.81,-1.07,0.24,1.0812030336620408
1057,-0.03,0.02,1.06,14.54,-0.46,0.46,1.0606130302801302
1058,-0.03,0.04,1.05,13.87,0.09,0.24,1.0511898020814319
1059,-0.02,0.06,1.04,11.95,0.76,0.03,1.0419213022104885
1060,-0.02,0.08,1.03,9.6,1.74,-0.76,1.0332956982393762
1061,-0.02,0.09,1.02,6.65,2.74,-0.85,1.0241581909060729
1062,-0.03,0.1,1.02,3.45,3.2,-1.52,1.025329215423027
1063,-0.03,0.1,1.02,-0.24,3.35,-1.16,1.025329215423027
1064,-0.03,0.1,1.02,-2.99,4.85,-1.46,1.025329215423027
1065,-0.03,0.1,1.02,-5.98,4.48,-1.71,1.025329215423027
1066,-0.03,0.09,1.02,-8.08,5.18,-1.62,1.0244022647378324
1067,-0.03,0.09,1.04,-9.51,5.64,-1.62,1.044317959244214
1068,-0.03,0.08,1.03,-10.64,6.4,-1.71,1.0335376142163382
1069,-0.03,0.07,1.04,-11.1,6.68,-1.52,1.042784733298297
1070,-0.03,0.06,1.04,-10.73,7.62,-0.85,1.0421612159354234
1071,-0.04,0.05,1.05,-9.88,8.57,-0.18,1.0519505691808908
1072,-0.04,0.05,1.05,-9.33,9.05,0.18,1.0519505691808908
1073,-0.04,0.04,1.06,-8.69,9.85,0.67,1.061508360777248
1074,-0.04,0.03,1.07,-7.99,9.45,1.22,1.071167587261676
1075,-0.04,0.01,1.08,-6.34,9.88,1.4,1.0807867504739315
1076,-0.05,0.01,1.09,-5.06,10.49,1.68,1.0911920087683928
1077,-0.05,0.02,1.09,-3.38,10.82,1.43,1.0913294644606641
1078,-0.05,0.01,1.1,-2.23,10.21,1.31,1.101181184001979
1079,-0.06,0.0,1.1,-0.49,9.76,1.16,1.101635148313633
1080,-0.06,0.0,1.11,1.83,9.02,0.73,1.1116204388189344
1081,-0.06,-0.0,1.12,3.57,8.41,0.03,1.1216059914247962
1082,-0.06,0.01,1.1,5.12,7.5,0.06,1.101680534456337
1083,-0.06,0.01,1.11,6.04,6.59,-0.4,1.1116654172906524
1084,-0.06,0.02,1.11,6.52,5.4,-0.58,1.1118003417880389
1085,-0.06,0.04,1.1,6.89,4.27,-0.7,1.1023611023616537
1086,-0.06,0.05,1.09,6.65,3.11,-0.61,1.0927945827098522
1087,-0.06,0.13,1.1,11.71,2.13,0.91,1.1092790451459904
1088,-0.07,0.05,1.09,4.12,1.28,-0.85,1.0933892262136116
1089,-0.08,0.07,1.07,1.49,-0.55,-0.91,1.075267408601228
1090,-0.06,0.1,1.07,0.21,0.76,-1.71,1.0763363786474933
1091,-0.07,0.1,1.07,-3.02,-0.43,-1.43,1.0769401097554125
1092,-0.06,0.1,1.06,-4.94,-1.22,-1.83,1.0663957989414625
1093,-0.06,0.09,1.06,-7.29,-1.1,-1.59,1.0655045753069294
1094,-0.06,0.08,1.06,-8.75,-1.16,-1.34,1.0647065323364933
1095,-0.06,0.07,1.05,-10.15,-0.95,-1.22,1.0540398474441086
1096,-0.06,0.06,1.05,-10.79,-1.16,-0.67,1.0534229919647664
1097,-0.05,0.05,1.06,-11.16,-1.07,-0.34,1.0623558725775464
1098,-0.05,0.04,1.06,-10.67,-0.79,0.03,1.0619322012256716
1099,-0.04,0.04,1.07,-8.66,-0.27,0.58,1.0714942836991712
1100,-0.03,0.04,1.06,-5.79,0.95,1.22,1.0611785900591852
1101,-0.05,0.0,1.07,-7.35,-0.15,0.79,1.071167587261676
1102,-0.03,0.0,1.08,-2.9,1.86,1.4,1.0804165863221464
1103,-0.04,-0.03,1.08,-2.93,2.93,1.68,1.0811567878897121
1104,-0.03,-0.02,1.07,-1.37,3.35,1.52,1.07060730429042
1105,-0.03,-0.01,1.08,0.91,5.3,1.68,1.0804628637764464
1106,-0.04,-0.01,1.09,2.74,5.95,2.13,1.0907795377618708
1107,-0.04,0.0,1.07,4.42,6.22,2.44,1.0707474025184465
1108,-0.05,0.0,1.08,5.64,6.98,2.35,1.0811567878897121
1109,-0.05,0.01,1.08,6.52,6.37,2.5,1.0812030336620408
1110,-0.06,0.01,1.08,5.88,6.34,2.16,1.0817116066678771
1111,-0.06,0.01,1.09,5.0,5.58,2.84,1.0916959283610066
1112,-0.07,0.03,1.09,3.57,5.03,2.77,1.092657311328671
1113,-0.06,0.05,1.08,1.37,3.66,2.53,1.0828203913853858
1114,-0.07,0.06,1.09,-0.43,2.53,2.68,1.0938921336219583
1115,-0.07,0.05,1.08,-2.96,1.19,1.95,1.0834205093129814
1116,-0.07,0.05,1.09,-5.79,-0.03,1.68,1.0933892262136116
1117,-0.08,0.06,1.09,-8.81,-1.52,1.65,1.0945775440780796
1118,-0.07,0.07,1.08,-12.41,-2.56,1.62,1.084527546906947
1119,-0.07,0.07,1.07,-15.95,-3.6,1.16,1.074569681314339
1120,-0.06,0.07,1.08,-20.09,-5.4,0.91,1.0839280418920807
1121,-0.08,0.07,1.08,-23.35,-6.37,0.61,1.0852188719332152
1122,-0.07,0.07,1.07,-26.74,-6.8,0.43,1.074569681314339
1123,-0.07,0.06,1.08,-30.46,-7.8,0.37,1.0839280418920807
1124,-0.07,0.04,1.08,-33.05,-8.51,0.55,1.0830050784737808
1125,-0.07,0.02,1.08,-34.66,-8.93,0.34,1.0824509226750192
1126,-0.06,0.0,1.09,-34.82,-8.84,0.55,1.0916501271011698
1127,-0.06,-0.01,1.1,-34.82,-8.93,0.49,1.101680534456337
1128,-0.05,-0.02,1.1,-33.41,-8.72,0.58,1.1013173929435602
1129,-0.06,-0.03,1.1,-31.28,-8.63,1.04,1.1020435563080073
1130,-0.05,-0.05,1.1,-27.68,-8.05,1.31,1.1022703842524302
1131,-0.05,-0.06,1.11,-23.81,-8.96,1.28,1.1127443551867608
1132,-0.04,-0.06,1.12,-19.33,-8.87,1.62,1.122319027727856
1133,-0.04,-0.06,1.1,-14.54,-8.81,1.89,1.1023611023616537
1134,-0.04,-0.07,1.09,-9.05,-8.69,2.2,1.092977584399607
1135,-0.04,-0.07,1.09,-3.84,-7.93,3.11,1.092977584399607
1136,-0.04,-0.07,1.09,1.19,-6.65,3.75,1.092977584399607
1137,-0.04,-0.06,1.1,7.04,-5.24,4.42,1.1023611023616537
1138,-0.03,-0.05,1.09,11.8,-2.71,5.82,1.091558518816101
1139,-0.04,-0.03,1.08,15.27,-1.13,6.59,1.0811567878897121
1140,-0.04,-0.03,1.08,18.26,-0.37,6.86,1.0811567878897121
1141,-0.04,-0.01,1.07,19.94,1.01,7.5,1.0707940978544848
1142,-0.05,0.01,1.07,20.12,1.07,7.8,1.0712142642814275
1143,-0.06,0.03,1.08,19.24,1.65,7.93,1.082081327812286
1144,-0.06,0.04,1.06,17.9,1.19,7.62,1.0624499988234741
1145,-0.07,0.05,1.07,15.4,0.79,7.68,1.0734523743510935
1146,-0.06,0.05,1.07,12.32,0.3,7.01,1.072846680565308
1147,-0.06,0.05,1.07,9.42,-0.03,6.77,1.072846680565308
1148,-0.05,0.05,1.06,6.71,-0.46,6.34,1.0623558725775464
1149,-0.05,0.05,1.07,3.05,-1.83,5.34,1.0723339032223125
1150,-0.04,0.04,1.07,0.61,-2.41,4.6,1.0714942836991712
1151,-0.04,0.03,1.07,-1.37,-2.44,3.78,1.071167587261676
1152,-0.04,0.02,1.07,-2.93,-2.87,3.11,1.0709341716464182
1153,-0.04,0.0,1.07,-4.45,-3.26,2.84,1.0707474025184465
1154,-0.04,-0.01,1.08,-4.82,-2.9,2.26,1.0807867504739315
1155,-0.04,-0.02,1.08,-4.15,-2.84,2.23,1.0809255293497328
1156,-0.04,-0.03,1.08,-3.29,-2.93,1.8,1.0811567878897121
1157,-0.03,-0.04,1.08,-1.86,-2.44,1.28,1.0811567878897121
1158,-0.05,-0.04,1.08,-0.64,-1.68,0.7,1.0818964830333815
1159,-0.03,-0.05,1.08,0.7,-1.13,0.79,1.0815729286552989
1160,-0.03,-0.05,1.09,2.93,-0.18,0.15,1.091558518816101
1161,-0.03,-0.05,1.09,5.24,1.07,0.49,1.091558518816101
1162,-0.04,-0.05,1.1,6.95,1.71,0.03,1.1018620603324176
1163,-0.04,-0.03,1.1,8.32,2.23,0.61,1.101135777277262
1164,-0.04,-0.03,1.11,9.79,2.87,0.15,1.111125555461668
1165,-0.04,-0.02,1.1,10.73,2.96,0.46,1.100908715561831
1166,-0.05,-0.01,1.1,11.49,2.38,0.58,1.101181184001979
1167,-0.05,-0.01,1.11,12.44,2.2,0.7,1.1111705539655017
1168,-0.05,-0.0,1.11,13.02,2.07,1.34,1.111125555461668
1169,-0.05,0.0,1.11,13.54,1.74,2.13,1.111125555461668
1170,-0.06,0.02,1.1,12.87,1.34,2.96,1.1018166816671457
1171,-0.06,0.04,1.09,11.46,-0.49,3.14,1.092382716816776
1172,-0.06,0.04,1.09,9.76,-2.13,3.38,1.092382716816776
1173,-0.05,0.03,1.08,8.11,-3.14,3.38,1.0815729286552989
1174,-0.05,0.03,1.08,6.01,-4.02,3.29,1.0815729286552989
1175,-0.05,0.04,1.08,3.6,-4.63,3.48,1.0818964830333815
1176,-0.04,0.04,1.08,1.62,-4.63,3.41,1.081480466767662
1177,-0.05,0.04,1.07,-0.21,-5.0,3.35,1.0719141756689292
1178,-0.04,0.04,1.06,-1.95,-4.76,3.32,1.061508360777248
1179,-0.04,0.03,1.06,-3.81,-4.51,2.65,1.0611785900591852
1180,-0.04,0.02,1.05,-5.52,-4.6,2.62,1.050951949424901
1181,-0.04,0.02,1.05,-7.23,-4.66,2.38,1.050951949424901
1182,-0.03,0.01,1.06,-7.93,-4.39,1.92,1.0604715932074749
1183,-0.03,0.01,1.06,-8.51,-3.57,1.8,1.0604715932074749
1184,-0.02,0.01,1.05,-9.12,-2.65,1.95,1.0502380682492898
1185,-0.02,0.01,1.05,-9.42,-1.07,1.74,1.0502380682492898
1186,-0.02,0.01,1.05,-9.36,0.0,1.98,1.0502380682492898
1187,-0.03,0.01,1.04,-9.36,1.1,2.44,1.0404806581575652
1188,-0.03,0.01,1.05,-9.39,1.71,2.9,1.0504760825454333
1189,-0.03,0.01,1.05,-9.3,2.35,3.05,1.0504760825454333
1190,-0.04,0.01,1.04,-9.18,3.38,3.93,1.0408169867945085
1191,-0.03,0.01,1.05,-8.9,4.42,4.94,1.0504760825454333
1192,-0.03,0.0,1.05,-8.11,5.52,5.82,1.0504284840006957
1193,-0.03,0.01,1.06,-7.56,7.01,6.74,1.0604715932074749
1194,-0.04,0.01,1.06,-5.91,8.08,7.74,1.060801583709225
1195,-0.04,-0.01,1.07,-4.02,8.14,9.12,1.0707940978544848
1196,-0.04,-0.04,1.07,-1.77,8.6,8.84,1.0714942836991712
1197,-0.03,-0.05,1.09,1.28,8.9,8.17,1.091558518816101
1198,-0.03,-0.05,1.1,4.73,8.99,7.41,1.101544370418187
1199,-0.02,-0.04,1.1,8.02,9.33,6.52,1.100908715561831
1200,-0.03,-0.03,1.11,11.43,9.66,5.15,1.1108105148944172
1201,-0.04,-0.02,1.11,14.45,9.27,4.57,1.1109005356016353
1202,-0.06,-0.01,1.11,17.16,7.84,3.72,1.1116654172906524
1203,-0.06,0.02,1.11,18.69,6.07,3.45,1.1118003417880389
1204,-0.08,0.04,1.1,19.33,3.78,3.29,1.1036303729057118
1205,-0.08,0.07,1.09,18.11,1.49,3.32,1.0951712194903591
1206,-0.08,0.1,1.08,15.82,-0.15,3.9,1.087566089945802
1207,-0.07,0.11,1.07,13.17,-1.31,3.84,1.0779146533933008
1208,-0.06,0.12,1.06,9.12,-2.8,3.75,1.0684568311354465
1209,-0.05,0.13,1.04,4.66,-3.45,3.69,1.049285471165974
1210,-0.05,0.13,1.04,-0.03,-3.57,3.23,1.049285471165974
1211,-0.04,0.13,1.03,-4.88,-3.54,3.32,1.0389417693018217
1212,-0.04,0.13,1.02,-9.54,-3.48,3.2,1.0290286682109493
1213,-0.03,0.12,1.02,-13.26,-2.13,3.51,1.0274726273726225
1214,-0.03,0.1,1.03,-17.16,-1.74,3.23,1.0352777405121776
1215,-0.02,0.09,1.03,-20.34,-0.34,3.23,1.034117981663601
1216,-0.03,0.08,1.04,-22.96,0.64,2.65,1.0435037134576954
1217,-0.02,0.06,1.03,-24.82,1.62,2.84,1.0319399207318225
1218,-0.02,0.04,1.04,-26.16,2.77,2.59,1.0409610943738483
1219,-0.02,-0.01,1.04,-25.88,2.96,2.62,1.040240356840668
1220,-0.02,-0.04,1.05,-24.36,4.27,2.9,1.050951949424901
1221,-0.02,-0.06,1.04,-21.83,5.88,3.69,1.0419213022104885
1222,-0.03,-0.09,1.04,-19.39,6.71,4.48,1.044317959244214
1223,-0.01,-0.09,1.04,-16.46,8.81,5.0,1.0439348638684312
1224,0.01,-0.1,1.04,-13.17,10.12,4.7,1.04484448603608
1225,-0.01,-0.09,1.04,-11.37,12.68,5.95,1.0439348638684312
1226,-0.01,-0.11,1.03,-9.73,12.93,6.25,1.035905401086412
1227,-0.01,-0.12,1.06,-7.29,13.66,5.09,1.0668176976409793
1228,0.01,-0.11,1.05,-5.37,16.62,4.57,1.0557935404235053
1229,-0.01,-0.09,1.01,-4.97,18.05,4.36,1.014051280754578
1230,-0.01,-0.09,1.04,-4.82,17.16,3.29,1.0439348638684312
1231,-0.0,-0.09,1.06,-2.32,18.17,1.07,1.0638138934982944
1232,-0.01,-0.06,1.05,-2.13,22.1,-0.24,1.0517604289951206
1233,-0.02,-0.04,1.03,-4.45,21.4,-1.28,1.030970416646375
1234,-0.03,-0.04,1.04,-5.49,20.24,-2.23,1.0412012293500235
1235,-0.05,-0.02,1.06,-5.85,23.02,-2.23,1.0613670430157516
1236,-0.05,-0.02,1.07,-7.44,23.6,-2.44,1.071354283138869
1237,-0.04,-0.04,1.09,-6.49,20.95,-3.99,1.0914669028422255
1238,-0.04,-0.02,1.08,-5.3,25.0,-4.6,1.0809255293497328
1239,-0.04,0.0,1.08,-6.19,25.49,-4.94,1.0807404868885038
1240,-0.06,0.01,1.1,-6.89,25.61,-4.6,1.101680534456337
1241,-0.05,0.01,1.12,-5.73,27.23,-3.66,1.121160113453917
1242,-0.09,0.01,1.13,-4.54,28.57,-2.16,1.1336225121265013
1243,-0.1,0.01,1.14,-3.45,27.62,-0.95,1.1444212511134175
1244,-0.1,0.01,1.15,-1.4,26.43,0.3,1.1543829520570719
1245,-0.12,0.01,1.16,-0.52,26.04,1.92,1.1662332528272377
1246,-0.13,0.0,1.18,1.52,24.54,3.23,1.1871394189394942
1247,-0.13,0.0,1.18,4.24,23.6,5.03,1.1871394189394942
1248,-0.14,-0.01,1.18,6.83,22.23,6.4,1.1883181392203015
1249,-0.12,-0.03,1.18,8.78,19.57,7.5,1.1864653387267576
1250,-0.11,-0.03,1.2,11.04,16.52,8.23,1.2054044964243331
1251,-0.12,-0.03,1.2,13.84,13.66,7.74,1.206358155772986
1252,-0.11,-0.02,1.19,15.61,10.91,6.34,1.195240561560726
1253,-0.1,-0.02,1.18,16.01,6.59,4.91,1.1843985815594342
1254,-0.11,-0.02,1.19,15.98,2.87,3.35,1.195240561560726
1255,-0.1,-0.01,1.18,15.91,-0.18,1.92,1.184271928232701
1256,-0.11,0.0,1.18,14.82,-2.84,0.98,1.1851160280748885
1257,-0.09,0.02,1.16,12.9,-5.67,-0.4,1.1636580253665592
1258,-0.11,0.03,1.14,11.01,-7.93,-1.62,1.1456875664857324
1259,-0.1,0.04,1.14,9.12,-9.57,-2.53,1.1450764166639709
1260,-0.1,0.04,1.13,7.32,-9.91,-3.2,1.1351211389098521
1261,-0.1,0.03,1.12,5.0,-10.73,-3.32,1.124855546281388
1262,-0.1,0.03,1.11,3.63,-10.55,-3.11,1.1148990985734988
1263,-0.09,0.02,1.1,2.2,-9.79,-2.96,1.103856874780422
1264,-0.09,0.01,1.1,1.04,-9.27,-2.16,1.1037209792334293
1265,-0.09,0.0,1.1,0.21,-8.9,-1.22,1.103675676999362
1266,-0.09,0.01,1.1,0.46,-8.81,-0.49,1.1037209792334293
1267,-0.09,0.01,1.09,0.88,-8.63,0.43,1.0937549999885716
1268,-0.09,-0.0,1.09,1.95,-8.17,1.46,1.0937092849564733
1269,-0.09,-0.01,1.09,2.96,-8.08,1.83,1.0937549999885716
1270,-0.09,-0.01,1.09,4.12,-8.63,2.01,1.0937549999885716
1271,-0.09,-0.02,1.08,5.03,-9.45,2.38,1.0839280418920807
1272,-0.08,-0.01,1.08,6.07,-9.02,2.59,1.0830050784737808
1273,-0.08,-0.01,1.08,6.74,-8.32,3.17,1.0830050784737808
1274,-0.07,0.0,1.07,7.41,-8.32,3.66,1.0722872749408154
1275,-0.08,-0.0,1.06,7.23,-7.74,3.93,1.063014581273465
1276,-0.07,0.0,1.06,7.38,-6.8,4.33,1.0623088063270492
1277,-0.08,-0.01,1.05,7.04,-6.65,4.51,1.0530906893520615
1278,-0.07,-0.01,1.06,6.95,-6.01,4.54,1.0623558725775464
1279,-0.06,-0.02,1.06,6.74,-4.63,3.87,1.061885116196663
1280,-0.05,-0.01,1.05,6.13,-3.96,3.2,1.0512373661547614
1281,-0.06,-0.02,1.06,5.37,-3.17,2.5,1.061885116196663
1282,-0.06,-0.02,1.06,4.54,-2.71,1.59,1.061885116196663
1283,-0.07,-0.02,1.06,3.87,-1.95,1.01,1.0624970588194587
1284,-0.08,-0.02,1.07,2.74,-2.07,1.1,1.0731728658515365
1285,-0.09,-0.02,1.07,1.55,-2.32,0.64,1.0739646176667088
1286,-0.08,-0.02,1.08,0.21,-3.41,0.52,1.0831435731240804
1287,-0.08,-0.02,1.08,-1.22,-3.69,0.79,1.0831435731240804
1288,-0.09,-0.02,1.08,-2.32,-4.54,0.55,1.0839280418920807
1289,-0.09,-0.02,1.09,-3.81,-4.79,0.18,1.0938921336219583
1290,-0.08,-0.02,1.09,-4.51,-5.43,-0.46,1.0931148155614763
1291,-0.08,-0.02,1.09,-5.18,-6.16,-0.88,1.0931148155614763
1292,-0.09,-0.03,1.09,-5.7,-6.16,-1.13,1.0941206514822759
1293,-0.09,-0.03,1.09,-5.88,-6.89,-1.59,1.0941206514822759
1294,-0.09,-0.03,1.08,-5.58,-7.59,-2.1,1.084158659975559
1295,-0.08,-0.02,1.09,-5.15,-7.93,-2.1,1.0931148155614763
1296,-0.08,-0.04,1.09,-4.21,-8.2,-1.98,1.0936635680134912
1297,-0.07,-0.04,1.09,-3.2,-8.29,-2.01,1.092977584399607
1298,-0.07,-0.04,1.08,-1.65,-7.68,-1.68,1.0830050784737808
1299,-0.07,-0.03,1.09,-0.12,-7.13,-0.7,1.092657311328671
1300,-0.07,-0.03,1.07,1.65,-5.91,0.03,1.072706856508338
1301,-0.07,-0.03,1.07,3.26,-5.55,0.82,1.072706856508338
1302,-0.07,-0.03,1.07,4.82,-5.03,1.34,1.072706856508338
1303,-0.07,-0.03,1.07,6.86,-5.3,1.65,1.072706856508338
1304,-0.07,-0.04,1.07,8.87,-4.18,2.56,1.0730330842988953
1305,-0.07,-0.03,1.08,10.37,-3.45,2.99,1.0826818553942799
1306,-0.07,-0.04,1.08,12.04,-3.02,3.29,1.0830050784737808
1307,-0.07,-0.04,1.07,13.78,-2.93,3.69,1.0730330842988953
1308,-0.07,-0.04,1.07,14.51,-3.02,3.6,1.0730330842988953
1309,-0.08,-0.03,1.07,15.37,-3.08,3.45,1.0734057946554976
1310,-0.08,-0.01,1.07,15.12,-3.35,3.2,1.0730330842988953
1311,-0.08,-0.0,1.07,14.3,-4.12,3.11,1.0729864864013898
1312,-0.08,0.0,1.06,13.11,-4.42,2.59,1.063014581273465
1313,-0.07,0.01,1.06,11.55,-5.0,2.41,1.0623558725775464
1314,-0.07,0.01,1.06,9.18,-5.73,1.92,1.0623558725775464
1315,-0.06,0.01,1.05,7.53,-5.55,1.95,1.0517604289951206
1316,-0.06,0.02,1.05,5.15,-5.52,1.28,1.0519030373565808
1317,-0.07,0.03,1.05,2.71,-5.46,0.52,1.0527582818482124
1318,-0.06,0.03,1.05,0.24,-4.94,0.49,1.0521406750050109
1319,-0.07,0.02,1.04,-1.86,-4.63,-0.52,1.042544963059148
1320,-0.06,0.02,1.05,-3.54,-4.63,-0.34,1.0519030373565808
1321,-0.06,0.02,1.05,-4.88,-4.36,-0.98,1.0519030373565808
1322,-0.06,0.01,1.05,-5.61,-3.6,-0.61,1.0517604289951206
1323,-0.06,0.01,1.05,-5.85,-3.51,-0.58,1.0517604289951206
1324,-0.07,0.0,1.06,-5.52,-3.38,-0.46,1.0623088063270492
1325,-0.07,-0.01,1.06,-4.66,-3.66,-0.55,1.0623558725775464
1326,-0.07,-0.03,1.06,-3.23,-3.45,-0.37,1.0627323275406655
1327,-0.06,-0.04,1.06,-1.86,-3.05,-0.34,1.0624499988234741
1328,-0.06,-0.04,1.07,0.18,-2.93,-0.12,1.0724271537032248
1329,-0.06,-0.04,1.07,2.07,-3.11,0.49,1.0724271537032248
1330,-0.07,-0.04,1.06,4.18,-3.17,0.88,1.0630616162763098
1331,-0.07,-0.04,1.07,5.76,-3.29,0.98,1.0730330842988953
1332,-0.06,-0.03,1.06,7.13,-3.75,1.01,1.0621205204683695
1333,-0.07,-0.02,1.05,7.32,-3.84,1.16,1.0525207836427746
1334,-0.07,-0.01,1.05,7.74,-4.24,1.37,1.0523782589924593
1335,-0.06,-0.02,1.06,7.44,-3.87,1.16,1.061885116196663
1336,-0.06,-0.02,1.05,7.74,-3.99,0.61,1.0519030373565808
1337,-0.06,-0.01,1.05,7.38,-4.12,0.79,1.0517604289951206
1338,-0.06,-0.01,1.05,6.22,-3.75,0.52,1.0517604289951206
1339,-0.06,0.0,1.04,5.55,-2.65,0.27,1.0417293314484335
1340,-0.05,-0.0,1.05,4.48,-3.38,-0.24,1.0511898020814319
1341,-0.06,-0.0,1.04,3.51,-2.87,-0.64,1.0417293314484335
1342,-0.05,-0.01,1.05,2.87,-2.01,-0.73,1.0512373661547614
1343,-0.05,-0.01,1.05,2.68,-1.68,-0.85,1.0512373661547614
1344,-0.05,-0.02,1.05,2.2,-1.43,-0.79,1.0513800454640558
1345,-0.04,-0.01,1.05,2.16,-0.09,-1.22,1.0508092119885513
1346,-0.04,-0.02,1.05,1.98,0.18,-1.37,1.050951949424901
1347,-0.05,-0.01,1.06,1.4,0.52,-1.43,1.0612257064357233
1348,-0.06,-0.01,1.05,1.49,0.52,-1.8,1.0517604289951206
1349,-0.06,-0.01,1.06,1.22,0.43,-1.92,1.0617438485811916
1350,-0.07,-0.01,1.06,1.28,0.24,-2.1,1.0623558725775464
1351,-0.05,-0.01,1.06,0.82,0.0,-2.38,1.0612257064357233
1352,-0.07,-0.02,1.06,0.58,-0.06,-2.35,1.0624970588194587
1353,-0.06,-0.02,1.07,0.98,-0.43,-2.65,1.0718675291284834
1354,-0.07,-0.02,1.07,1.34,-0.09,-2.62,1.0724737759031686
1355,-0.07,-0.03,1.07,1.55,-0.88,-2.99,1.072706856508338
1356,-0.07,-0.02,1.08,1.83,-1.25,-3.26,1.0824509226750192
1357,-0.07,-0.02,1.07,2.65,-2.1,-3.23,1.0724737759031686
1358,-0.07,-0.01,1.07,2.74,-2.65,-3.48,1.0723339032223125
1359,-0.07,-0.01,1.07,3.45,-3.32,-3.38,1.0723339032223125
1360,-0.07,-0.01,1.06,3.84,-3.6,-3.17,1.0623558725775464
1361,-0.06,-0.01,1.06,4.05,-4.24,-3.11,1.0617438485811916
1362,-0.06,-0.0,1.05,4.24,-3.96,-2.62,1.0517128885774862
1363,-0.05,0.0,1.05,4.39,-4.02,-2.68,1.0511898020814319
1364,-0.06,0.0,1.05,4.12,-3.45,-2.35,1.0517128885774862
1365,-0.05,0.01,1.04,3.87,-3.17,-2.16,1.0412492496996097
1366,-0.05,0.01,1.05,3.48,-1.77,-2.07,1.0512373661547614
1367,-0.05,0.01,1.05,3.48,-1.16,-1.74,1.0512373661547614
1368,-0.05,0.01,1.05,3.11,-0.49,-1.01,1.0512373661547614
1369,-0.05,0.01,1.04,2.8,-0.43,-1.01,1.0412492496996097
1370,-0.03,0.01,1.05,2.38,-0.15,-1.04,1.0504760825454333
1371,-0.05,0.0,1.06,2.53,0.4,-0.98,1.0611785900591852
1372,-0.04,0.0,1.06,2.62,0.76,-0.95,1.0607544484940896
1373,-0.05,-0.0,1.06,2.77,1.19,-0.98,1.0611785900591852
1374,-0.05,-0.0,1.07,3.2,1.52,-0.52,1.071167587261676
1375,-0.06,-0.01,1.07,3.69,1.46,-0.43,1.0717275773255068
1376,-0.06,-0.01,1.07,4.45,1.07,0.06,1.0717275773255068
1377,-0.06,-0.01,1.08,4.91,1.04,-0.21,1.0817116066678771
1378,-0.06,-0.01,1.08,5.46,0.64,0.15,1.0817116066678771
1379,-0.06,-0.02,1.08,6.1,-0.09,0.21,1.0818502669038816
1380,-0.05,-0.02,1.07,6.62,-0.67,0.06,1.071354283138869
1381,-0.05,-0.01,1.08,7.53,-0.64,0.24,1.0812030336620408
1382,-0.05,-0.01,1.07,7.9,-1.46,0.0,1.0712142642814275
1383,-0.05,-0.01,1.08,8.08,-1.8,-0.4,1.0812030336620408
1384,-0.06,-0.0,1.07,9.36,-1.34,-0.03,1.0716809226630846
1385,-0.06,0.01,1.06,8.81,-1.59,0.12,1.0617438485811916
1386,-0.06,0.0,1.05,8.32,-2.26,-0.15,1.0517128885774862
1387,-0.05,-0.0,1.06,8.02,-2.04,-0.3,1.0611785900591852
1388,-0.04,-0.0,1.06,7.41,-2.29,-0.52,1.0607544484940896
1389,-0.04,-0.0,1.06,6.71,-1.52,-0.91,1.0607544484940896
1390,-0.03,0.0,1.06,6.49,-0.82,-1.19,1.0604244433244643
1391,-0.03,-0.0,1.06,5.55,-0.12,-1.95,1.0604244433244643
1392,-0.03,-0.0,1.05,4.7,0.15,-2.26,1.0504284840006957
1393,-0.04,0.01,1.05,3.54,0.55,-3.05,1.0508092119885513
1394,-0.05,0.01,1.05,2.65,1.01,-3.35,1.0512373661547614
1395,-0.04,0.01,1.05,1.25,1.1,-3.26,1.0508092119885513
1396,-0.05,0.02,1.06,0.09,0.91,-3.41,1.0613670430157516
1397,-0.05,0.03,1.06,-0.98,0.76,-3.45,1.0616025621672172
1398,-0.06,0.03,1.05,-2.01,0.18,-3.02,1.0521406750050109
1399,-0.05,0.03,1.05,-3.17,0.49,-3.11,1.051617801294748
1400,-0.05,0.03,1.06,-3.87,0.88,-2.93,1.0616025621672172
1401,-0.05,0.03,1.06,-4.3,1.1,-2.71,1.0616025621672172
1402,-0.05,0.02,1.07,-4.3,1.28,-2.53,1.071354283138869
1403,-0.05,0.02,1.07,-3.6,2.2,-1.83,1.071354283138869
1404,-0.06,0.02,1.07,-2.84,3.2,-1.1,1.0718675291284834
1405,-0.06,0.02,1.08,-2.01,3.08,-0.37,1.0818502669038816
1406,-0.06,0.0,1.09,-0.55,3.23,0.27,1.0916501271011698
1407,-0.07,-0.0,1.09,1.34,2.68,0.58,1.0922453936730518
1408,-0.07,-0.01,1.1,3.63,2.59,1.34,1.1022703842524302
1409,-0.07,-0.01,1.09,5.46,1.86,1.8,1.092291169972549
1410,-0.07,-0.01,1.1,7.47,1.22,2.5,1.1022703842524302
1411,-0.07,-0.0,1.09,9.27,0.4,2.29,1.0922453936730518
1412,-0.07,-0.0,1.09,10.82,-0.34,2.84,1.0922453936730518
1413,-0.07,0.0,1.09,11.8,-1.28,3.14,1.0922453936730518
1414,-0.07,0.01,1.09,12.2,-1.89,3.48,1.092291169972549
1415,-0.07,0.02,1.08,12.68,-2.53,4.51,1.0824509226750192
1416,-0.07,0.03,1.07,12.68,-3.23,4.73,1.072706856508338
1417,-0.05,0.03,1.06,12.16,-3.75,4.82,1.0616025621672172
1418,-0.05,0.04,1.06,10.91,-3.63,4.76,1.0619322012256716
1419,-0.05,0.03,1.04,9.85,-3.26,4.63,1.041633332799983
1420,-0.05,0.03,1.05,9.05,-2.53,4.94,1.051617801294748
1421,-0.05,0.03,1.04,8.02,-1.68,5.34,1.041633332799983
1422,-0.04,0.02,1.04,7.1,-0.64,5.67,1.0409610943738483
1423,-0.04,0.02,1.04,6.31,0.67,6.46,1.0409610943738483
1424,-0.03,0.02,1.04,5.52,1.86,6.55,1.0406248123122954
1425,-0.04,0.02,1.04,4.94,3.26,7.23,1.0409610943738483
1426,-0.04,0.01,1.04,4.91,4.12,7.1,1.0408169867945085
1427,-0.04,0.0,1.05,4.73,5.09,7.41,1.0507616285342742
1428,-0.05,0.01,1.06,4.54,6.34,7.44,1.0612257064357233
1429,-0.06,0.01,1.06,4.42,6.83,7.74,1.0617438485811916
1430,-0.08,0.01,1.07,4.73,6.49,7.77,1.0730330842988953
1431,-0.07,0.01,1.08,4.82,6.74,8.08,1.0823123393919152
1432,-0.07,0.01,1.08,4.97,6.52,7.96,1.0823123393919152
1433,-0.08,-0.01,1.09,5.34,6.52,7.99,1.092977584399607
1434,-0.06,-0.01,1.1,5.4,6.25,7.35,1.101680534456337
1435,-0.05,-0.03,1.12,5.91,5.95,6.28,1.1215168300119265
1436,-0.05,-0.03,1.12,7.29,5.21,5.24,1.1215168300119265
1437,-0.06,-0.02,1.13,8.02,4.91,4.15,1.1317685275708986
1438,-0.07,-0.02,1.14,8.48,3.51,2.87,1.142322196230118
1439,-0.09,-0.01,1.14,9.02,2.23,2.16,1.1435908359199105
1440,-0.08,0.0,1.14,8.14,0.88,1.28,1.1428035701729322
1441,-0.08,0.01,1.13,7.23,-1.49,0.34,1.1328724553099523
1442,-0.09,0.02,1.13,5.85,-3.32,-0.18,1.1337548235840056
1443,-0.08,0.03,1.12,4.45,-4.76,-1.07,1.1232542009714455
1444,-0.07,0.03,1.11,2.96,-5.98,-1.46,1.1126095451684748
1445,-0.07,0.04,1.11,1.59,-6.37,-2.04,1.112924076476019
1446,-0.06,0.04,1.09,0.52,-7.07,-2.2,1.092382716816776
1447,-0.06,0.03,1.09,-0.18,-7.65,-2.07,1.0920622692868756
1448,-0.06,0.02,1.08,-0.46,-7.41,-1.86,1.0818502669038816
1449,-0.05,0.03,1.07,-0.95,-7.1,-1.86,1.0715876072445034
1450,-0.05,0.03,1.06,-0.55,-5.58,-1.43,1.0616025621672172
1451,-0.04,0.02,1.06,0.43,-4.91,-1.01,1.0609429767899876
1452,-0.04,0.01,1.07,0.95,-3.11,-0.76,1.0707940978544848
1453,-0.03,0.01,1.06,1.83,-0.95,-0.52,1.0604715932074749
1454,-0.04,0.01,1.06,2.5,-0.18,-0.06,1.060801583709225
1455,-0.04,0.02,1.07,2.87,0.64,0.21,1.0709341716464182
1456,-0.05,0.02,1.06,3.6,2.04,0.4,1.0613670430157516
1457,-0.05,0.02,1.07,4.24,2.8,0.52,1.071354283138869
1458,-0.06,0.02,1.07,4.15,3.66,0.98,1.0718675291284834
1459,-0.06,0.02,1.07,4.12,3.84,1.04,1.0718675291284834
1460,-0.06,0.02,1.08,4.18,3.72,0.95,1.0818502669038816
1461,-0.06,0.02,1.08,3.96,3.66,1.28,1.0818502669038816
1462,-0.07,0.03,1.08,4.18,3.45,1.01,1.0826818553942799
1463,-0.07,0.03,1.08,4.12,2.93,1.37,1.0826818553942799
1464,-0.07,0.01,1.1,4.15,2.35,1.34,1.1022703842524302
1465,-0.05,0.01,1.09,4.3,1.95,1.22,1.0911920087683928
1466,-0.07,0.01,1.1,4.15,2.01,1.04,1.1022703842524302
1467,-0.05,0.01,1.11,3.96,2.13,0.73,1.1111705539655017
1468,-0.07,0.01,1.1,3.75,1.22,0.49,1.1022703842524302
1469,-0.06,0.01,1.11,3.45,0.24,0.4,1.1116654172906524
1470,-0.08,0.01,1.11,3.75,-0.09,-0.21,1.112924076476019
1471,-0.09,0.01,1.11,3.54,-1.52,-0.21,1.113687568396092
1472,-0.07,0.01,1.11,3.38,-2.71,-0.88,1.1122499719037984
1473,-0.07,0.01,1.11,2.9,-3.17,-1.28,1.1122499719037984
1474,-0.07,0.01,1.11,3.14,-3.41,-1.86,1.1122499719037984
1475,-0.07,0.01,1.1,2.93,-3.9,-1.8,1.1022703842524302
1476,-0.06,0.01,1.1,3.54,-4.66,-2.1,1.101680534456337
1477,-0.07,0.02,1.1,3.57,-4.97,-2.04,1.1024064586167845
1478,-0.07,0.03,1.09,3.84,-5.03,-2.13,1.092657311328671
1479,-0.06,0.03,1.08,3.9,-5.37,-1.74,1.082081327812286
1480,-0.06,0.03,1.08,4.54,-5.34,-1.46,1.082081327812286
1481,-0.06,0.02,1.07,4.94,-4.66,-0.98,1.0718675291284834
1482,-0.06,0.02,1.06,5.27,-4.82,-0.61,1.061885116196663
1483,-0.05,0.02,1.06,5.67,-4.12,-0.7,1.0613670430157516
1484,-0.05,0.02,1.06,6.04,-3.35,-0.37,1.0613670430157516
1485,-0.05,0.03,1.05,6.31,-2.04,-0.55,1.051617801294748
1486,-0.04,0.04,1.05,6.43,-1.65,0.09,1.05152270541344
1487,-0.04,0.04,1.04,6.01,-0.73,-0.12,1.041537325303323
1488,-0.04,0.04,1.03,5.79,-0.06,0.06,1.0315522284402279
1489,-0.05,0.04,1.04,5.34,0.85,0.15,1.0419692893746917
1490,-0.05,0.04,1.04,4.82,1.89,0.46,1.0419692893746917
1491,-0.05,0.04,1.04,3.9,2.13,0.67,1.0419692893746917
1492,-0.05,0.04,1.04,3.32,2.62,1.4,1.0419692893746917
1493,-0.06,0.03,1.06,2.93,3.45,1.86,1.0621205204683695
1494,-0.05,0.02,1.06,2.32,3.35,2.29,1.0613670430157516
1495,-0.05,0.01,1.08,2.2,3.54,2.13,1.0812030336620408
1496,-0.06,0.01,1.09,1.95,3.63,2.1,1.0916959283610066
1497,-0.06,0.01,1.09,1.86,3.17,1.74,1.0916959283610066
1498,-0.06,-0.01,1.1,1.92,2.68,1.19,1.101680534456337
