,acc_X,acc_Y,acc_Z,gyro_X,gyro_Y,gyro_Z,acc
0,0.71,0.31,0.56,-50.43,1.77,4.39,0.955928867646542
1,0.71,0.3,0.56,-48.32,1.28,4.15,0.952732911156112
2,0.71,0.3,0.57,-46.65,2.41,4.15,0.9586448768965492
3,0.71,0.31,0.57,-45.37,2.26,5.12,0.9618211892030659
4,0.72,0.31,0.56,-43.72,4.12,4.73,0.9633794683301071
5,0.72,0.32,0.56,-42.35,4.85,5.37,0.9666436778875658
6,0.72,0.33,0.57,-40.98,6.83,5.55,0.9758073580374356
7,0.72,0.34,0.57,-39.24,9.39,5.52,0.9792343948207701
8,0.69,0.34,0.58,-37.71,9.36,7.04,0.9633794683301071
9,0.7,0.34,0.58,-35.09,11.13,9.02,0.9705668446840743
10,70.4,0.49,0.92,-0.27,1.95,1.52,70.40771619645109
11,0.4,0.49,0.92,-0.3,1.55,2.04,1.1164676439557037
12,0.4,0.48,0.92,-0.24,1.07,2.74,1.1121151019566275
13,0.4,0.48,0.93,0.24,0.52,3.14,1.1204017136723774
14,0.4,0.48,0.92,0.61,-0.03,3.6,1.1121151019566275
15,0.4,0.48,0.92,1.25,-0.06,4.02,1.1121151019566275
16,0.4,0.48,0.92,1.86,-0.67,4.54,1.1121151019566275
17,0.4,0.47,0.92,2.16,-0.95,4.97,1.107835727894709
18,0.4,0.48,0.92,2.9,-0.91,5.52,1.1121151019566275
19,0.4,0.47,0.91,2.99,-1.46,6.1,1.099545360592277
20,0.4,0.47,0.91,3.23,-2.04,6.77,1.099545360592277
21,0.4,0.47,0.92,3.69,-2.62,6.68,1.107835727894709
22,0.41,0.46,0.92,4.36,-3.17,7.5,1.1072939989000212
23,0.41,0.45,0.92,4.94,-3.48,7.5,1.103177229641729
24,0.4,0.46,0.91,5.24,-3.87,7.32,1.0953081758117211
25,0.41,0.45,0.91,5.64,-4.24,7.04,1.094851588115942
26,0.41,0.45,0.9,5.55,-4.7,7.44,1.0865541864076544
27,0.41,0.45,0.89,5.95,-5.37,7.93,1.0782856764327347
28,0.41,0.45,0.89,5.43,-5.64,7.26,1.0782856764327347
29,0.41,0.45,0.88,5.09,-5.61,7.5,1.0700467279516348
30,0.41,0.44,0.88,4.85,-5.34,7.44,1.0658799181896617
31,0.44,0.44,0.87,4.79,-5.46,7.26,1.0696261028976433
32,0.43,0.43,0.87,4.42,-5.15,7.1,1.061461256947233
33,0.43,0.44,0.86,3.99,-4.57,6.55,1.057402477772773
34,0.43,0.42,0.86,3.41,-4.12,6.1,1.0492378186092988
35,0.43,0.43,0.87,3.26,-3.81,5.43,1.061461256947233
36,0.43,0.43,0.87,2.62,-3.29,5.03,1.061461256947233
37,0.41,0.44,0.86,2.2,-3.38,4.79,1.0494284158531253
38,0.42,0.43,0.87,1.92,-3.29,4.36,1.0574497624000867
39,0.43,0.43,0.87,1.55,-3.35,4.3,1.061461256947233
40,0.42,0.43,0.86,0.88,-3.99,4.27,1.0492378186092988
41,0.43,0.43,0.87,1.43,-4.18,3.96,1.061461256947233
42,0.43,0.42,0.88,1.74,-4.42,3.51,1.0656922632730332
43,0.43,0.43,0.87,1.83,-4.39,3.2,1.061461256947233
44,0.43,0.43,0.88,2.29,-4.79,2.62,1.0696728471827261
45,0.43,0.42,0.88,2.65,-4.7,2.1,1.0656922632730332
46,0.44,0.43,0.88,3.17,-4.7,1.4,1.0737318100903968
47,0.44,0.43,0.88,3.99,-4.45,1.19,1.0737318100903968
48,0.43,0.45,0.88,3.81,-4.82,0.85,1.0778682665335315
49,0.44,0.46,0.87,3.6,-4.85,0.43,1.0780074211247344
50,0.44,0.47,0.87,2.41,-4.24,0.15,1.0823123393919152
51,0.44,0.49,0.87,1.59,-3.54,-0.3,1.091146186356347
52,0.44,0.51,0.87,-0.4,-3.2,-0.82,1.1002726934719411
53,0.44,0.51,0.87,-2.41,-2.62,-1.46,1.1002726934719411
54,0.45,0.52,0.87,-4.42,-2.41,-1.59,1.1089634800118533
55,0.45,0.53,0.88,-6.28,-1.74,-2.41,1.1215168300119263
56,0.45,0.54,0.9,-8.17,-1.62,-2.53,1.1419719786404567
57,0.45,0.54,0.9,-10.21,-1.31,-3.14,1.1419719786404567
58,0.47,0.53,0.91,-10.98,-0.64,-4.05,1.1532129031536198
59,0.47,0.54,0.93,-13.17,-0.43,-4.88,1.1736268572250723
60,0.5,0.5,0.94,-13.96,-0.27,-5.37,1.176265276202609
61,0.51,0.49,0.96,-13.29,0.46,-6.62,1.1923925528113632
62,0.5,0.5,1.0,-12.9,-0.09,-6.89,1.224744871391589
63,0.51,0.49,1.03,-13.17,-1.34,-7.16,1.2494398745037714
64,0.54,0.47,1.05,-12.87,-1.77,-7.1,1.2708265027138834
65,0.56,0.46,1.06,-12.56,-0.82,-7.9,1.284056073541962
66,0.6,0.46,1.08,-13.69,0.3,-8.08,1.3183322798141597
67,0.63,0.46,1.1,-14.51,2.16,-7.93,1.3485177047410242
68,0.65,0.45,1.14,-16.43,4.76,-7.38,1.38729953506804
69,0.7,0.4,1.19,-18.14,7.47,-7.16,1.4373934743138357
70,0.76,0.31,1.24,-17.99,11.37,-8.17,1.4870440477672475
71,0.82,0.23,1.31,-17.99,14.79,-10.24,1.5624979999987199
72,0.87,0.18,1.39,-21.22,19.82,-14.7,1.649666632989829
73,1.01,0.16,1.49,-21.22,48.35,-26.22,1.807152456213919
74,0.9,0.06,1.59,-35.21,18.2,-21.92,1.8280317283898548
75,1.21,-0.08,1.69,-30.85,46.13,-35.95,2.0800480763674667
76,1.25,-0.27,1.79,-30.34,51.16,-39.42,2.1998863607013885
77,1.3,-0.42,1.95,-34.27,60.88,-49.48,2.380945190465333
78,1.36,-0.68,2.0,-35.0,62.65,-51.55,2.512369399590753
79,1.47,-1.03,2.0,-20.46,76.83,-30.12,2.6873406929527937
80,1.5,-1.47,2.0,-28.63,66.77,-62.1,2.9001551682625535
81,1.82,-1.94,2.0,-6.55,69.33,-51.04,3.3280624994131345
82,2.0,-2.0,2.0,21.46,69.15,-44.54,3.4641016151377544
83,2.0,-2.0,2.0,42.04,57.16,-35.3,3.4641016151377544
84,2.0,-2.0,2.0,62.56,46.55,-35.0,3.4641016151377544
85,2.0,-2.0,2.0,57.35,9.94,-39.91,3.4641016151377544
86,2.0,-2.0,2.0,41.34,-11.28,-68.48,3.4641016151377544
87,2.0,-2.0,2.0,-4.66,-46.16,-115.03,3.4641016151377544
88,2.0,-2.0,2.0,-71.86,-93.35,-171.92,3.4641016151377544
89,2.0,-2.0,2.0,-156.86,-140.64,-240.98,3.4641016151377544
90,2.0,-1.98,2.0,-256.77,-182.41,-310.27,3.4525932282850813
91,2.0,-1.95,2.0,-355.73,-226.86,-351.98,3.435476677260377
92,2.0,-2.0,1.76,-432.38,-238.81,-393.9,3.3313060501851224
93,2.0,-2.0,1.41,-486.89,-235.34,-443.9,3.160395544864598
94,2.0,-2.0,1.17,-511.98,-234.42,-483.96,3.0608658905610353
95,2.0,-2.0,0.93,-503.35,-223.08,-509.12,2.9773981930537943
96,2.0,-2.0,0.6,-467.38,-207.53,-525.37,2.891366458960192
97,2.0,-2.0,0.17,-402.04,-165.67,-533.35,2.8335313656284096
98,2.0,-2.0,-0.44,-316.95,-99.3,-533.14,2.862446506050375
99,2.0,-2.0,-1.17,-237.99,-8.38,-544.91,3.0608658905610353
100,2.0,-2.0,-2.0,-170.12,94.97,-552.53,3.4641016151377544
101,2.0,-2.0,-2.0,-96.68,208.51,-535.34,3.4641016151377544
102,2.0,-2.0,-2.0,-44.82,357.68,-539.79,3.4641016151377544
103,2.0,-2.0,-2.0,-9.57,494.42,-562.56,3.4641016151377544
104,1.99,-2.0,-2.0,36.28,621.68,-577.23,3.458337751001195
105,-0.07,-2.0,-2.0,69.05,699.05,-577.53,2.829293197955984
106,-2.0,-2.0,-2.0,157.16,741.89,-550.85,3.4641016151377544
107,-2.0,-2.0,-2.0,279.02,792.01,-535.61,3.4641016151377544
108,-2.0,-2.0,-2.0,444.88,857.29,-465.79,3.4641016151377544
109,-2.0,-2.0,-2.0,622.84,939.45,-399.73,3.4641016151377544
110,-2.0,-0.45,-2.0,652.62,998.99,-285.46,2.864000698323937
111,-2.0,2.0,-2.0,352.38,998.99,-377.59,3.4641016151377544
112,-2.0,2.0,-2.0,23.26,859.54,-569.6,3.4641016151377544
113,-2.0,2.0,-2.0,-410.4,411.65,-932.44,3.4641016151377544
114,-2.0,2.0,-2.0,-752.9,113.54,-987.77,3.4641016151377544
115,-2.0,2.0,0.68,-707.26,232.13,-900.49,2.9090204536922735
116,-2.0,2.0,2.0,-470.12,207.77,-558.17,3.4641016151377544
117,-2.0,2.0,2.0,-130.76,-239.85,-104.36,3.4641016151377544
118,-2.0,2.0,2.0,389.85,-410.46,452.9,3.4641016151377544
119,-2.0,2.0,2.0,700.18,-701.07,915.43,3.4641016151377544
120,-2.0,2.0,-2.0,836.92,-792.84,998.99,3.4641016151377544
121,-2.0,0.75,-2.0,878.54,-782.38,998.99,2.9261749776799064
122,-0.86,-0.31,-2.0,800.03,-550.24,998.99,2.199022510116711
123,2.0,1.04,-2.0,560.3,-242.41,998.99,3.013569312293978
124,2.0,2.0,-2.0,147.9,64.73,831.34,3.4641016151377544
125,-0.85,2.0,-2.0,-331.62,208.02,508.17,2.9533878851244717
126,-2.0,2.0,-2.0,-683.38,148.05,235.12,3.4641016151377544
127,-2.0,1.27,-2.0,-870.85,17.38,66.92,3.1004677066533044
128,-2.0,-2.0,-2.0,-872.68,-120.64,-34.15,3.4641016151377544
129,-2.0,-2.0,-1.64,-706.16,-190.91,-39.3,3.2694953739071106
130,-2.0,-2.0,-0.73,-462.35,-137.44,18.29,2.9211128016562453
131,-2.0,-2.0,-0.42,-248.69,-219.94,173.38,2.859440504714165
132,-2.0,-2.0,-0.7,-34.82,-129.54,303.6,2.9137604568666933
133,-2.0,-2.0,-0.78,75.95,-165.91,402.53,2.93400749828626
134,-2.0,-2.0,-0.9,142.07,-149.51,453.81,2.968164415931166
135,-1.46,-2.0,-0.93,151.83,-156.49,448.69,2.6450897905364195
136,-0.57,-2.0,-0.87,138.57,-151.25,400.27,2.2542848089804446
137,0.4,-2.0,-0.72,110.15,-142.26,344.57,2.1629609335353237
138,1.22,-1.95,-0.33,68.96,-128.45,292.04,2.3237469741776966
139,1.97,-1.81,0.14,37.47,-105.7,245.52,2.678917691904699
140,2.0,-1.87,0.66,13.14,-55.21,221.01,2.8164694211015324
141,2.0,-1.68,1.51,5.27,-87.01,200.09,3.0170349683091175
142,2.0,-1.87,1.78,25.58,-60.46,196.28,3.2657770897598017
143,2.0,-1.94,2.0,50.52,-55.4,195.79,3.429810490391561
144,2.0,-2.0,2.0,80.46,-56.92,194.02,3.4641016151377544
145,2.0,-1.99,2.0,114.76,-50.61,195.49,3.458337751001195
146,2.0,-1.88,2.0,141.22,-50.18,199.88,3.3962332075403774
147,2.0,-1.74,2.0,158.57,-55.21,199.02,3.3207830401879614
148,2.0,-1.62,2.0,165.09,-70.91,191.86,3.2595091655032973
149,1.98,-1.51,2.0,161.25,-101.1,178.51,3.193822161611382
150,1.98,-1.5,2.0,148.9,-136.37,161.4,3.189106457928302
151,2.0,-1.55,2.0,132.38,-170.15,143.05,3.2252906845740275
152,2.0,-1.69,2.0,115.95,-193.78,120.18,3.2948596328220114
153,2.0,-1.82,2.0,102.1,-208.54,101.77,3.3633911458526495
154,2.0,-1.87,2.0,89.97,-213.35,89.18,3.390707890691854
155,2.0,-1.89,2.0,77.71,-212.9,78.23,3.4017789463749697
156,2.0,-1.89,2.0,66.89,-211.49,70.55,3.4017789463749697
157,2.0,-1.9,2.0,57.13,-210.64,63.08,3.407345007480164
158,2.0,-1.8,2.0,47.38,-206.65,56.46,3.352610922848042
159,2.0,-1.68,1.86,34.88,-198.57,51.07,3.2065557846387143
160,2.0,-1.6,1.65,24.57,-185.49,47.87,3.046719547316425
161,2.0,-1.45,1.47,15.52,-168.41,48.17,2.874613017433825
162,2.0,-1.33,1.33,8.23,-148.99,51.01,2.7455054179513105
163,2.0,-1.27,1.2,4.15,-125.79,51.16,2.6557296549159517
164,2.0,-1.26,1.09,8.9,-99.66,44.02,2.603017479772274
165,2.0,-1.29,1.02,18.9,-69.05,32.93,2.5893049260371015
166,2.0,-1.14,0.92,30.7,-36.28,16.1,2.4791127445116325
167,2.0,-0.88,0.8,38.99,-2.65,-1.89,2.3268863315598383
168,1.89,-0.46,0.68,40.7,29.6,-15.49,2.060606706773517
169,1.55,0.1,0.66,27.2,57.16,-25.15,1.6876314763596938
170,1.19,0.51,0.68,2.77,66.25,-29.79,1.4623952953972466
171,0.89,0.8,0.76,-24.48,66.16,-34.7,1.4176388820852792
172,0.63,0.99,0.87,-50.61,59.21,-39.33,1.460787458872782
173,0.43,1.07,0.98,-73.96,50.64,-44.88,1.5133406754594287
174,0.3,1.09,1.06,-91.16,34.21,-47.29,1.5497419139972954
175,0.24,1.08,1.14,-101.8,19.48,-46.16,1.5885842753848471
176,0.21,1.03,1.2,-104.73,7.96,-42.23,1.5953056133543817
177,0.2,0.97,1.2,-99.54,-1.04,-33.81,1.5559241626763176
178,0.2,0.97,1.18,-90.49,-7.44,-22.65,1.540551849176132
179,0.21,0.97,1.16,-79.39,-12.9,-8.6,1.526630276131061
180,0.25,0.97,1.09,-67.44,-11.46,5.64,1.4803715749770394
181,0.28,0.98,1.04,-58.29,-9.18,18.81,1.4561593319413917
182,0.32,0.97,0.98,-50.03,-1.86,29.3,1.415521105459046
183,0.38,0.97,0.92,-43.78,7.23,38.81,1.38985610766007
184,0.39,0.95,0.89,-38.75,16.43,47.77,1.3589334052851891
185,0.36,0.93,0.87,-36.34,22.62,56.1,1.3234047000067668
186,0.36,0.89,0.84,-35.64,30.43,59.85,1.2756566936288147
187,0.32,0.84,0.85,-36.83,33.96,62.47,1.2371337841963577
188,0.31,0.8,0.82,-39.21,38.87,63.48,1.186802426691149
189,0.29,0.72,0.82,-40.7,41.43,62.96,1.1291146974510604
190,0.28,0.65,0.82,-41.34,45.73,61.52,1.0831897340724752
191,0.26,0.6,0.83,-41.77,47.68,59.66,1.0566456359631642
192,0.21,0.55,0.87,-42.35,47.87,58.02,1.0504760825454333
193,0.12,0.52,0.92,-42.65,41.68,57.96,1.0635788640246666
194,0.05,0.48,0.97,-43.41,35.3,56.86,1.0834205093129814
195,0.0,0.43,1.03,-42.68,26.31,55.4,1.1161541112229978
196,-0.03,0.37,1.08,-40.27,15.12,54.73,1.1420157617125957
197,-0.04,0.31,1.11,-36.95,2.23,51.98,1.15316954521007
198,-0.03,0.29,1.12,-34.51,-11.71,47.5,1.1573245007343447
199,0.02,0.3,1.12,-32.29,-19.45,40.95,1.159655121145938
200,0.01,0.31,1.08,-31.16,-30.3,36.77,1.123654751247019
201,0.0,0.34,1.09,-32.87,-42.84,33.69,1.1417968295629481
202,0.04,0.32,1.07,-32.26,-48.38,28.35,1.1175419455215094
203,0.04,0.32,1.05,-32.23,-60.21,25.03,1.0984079387914127
204,0.08,0.31,1.0,-32.9,-66.98,21.86,1.05
205,0.17,0.29,0.92,-31.68,-71.37,18.6,0.9794896630388705
206,0.26,0.3,0.83,-30.15,-71.95,16.25,0.9200543462209175
207,0.35,0.31,0.73,-28.41,-66.71,15.09,0.8668909966079934
208,0.44,0.33,0.67,-27.1,-59.33,13.9,0.8668333173107735
209,0.5,0.29,0.62,-25.06,-47.47,14.18,0.8476437931112337
210,0.54,0.26,0.6,-22.35,-33.14,15.27,0.8480566018845677
211,0.54,0.24,0.62,-19.3,-21.52,15.18,0.8565045242145543
212,0.5,0.22,0.64,-15.58,-13.75,15.21,0.8414273587185052
213,0.47,0.19,0.67,-11.1,-8.81,13.41,0.8401785524517988
214,0.44,0.2,0.69,-6.49,-4.21,12.56,0.8424369412602939
215,0.39,0.22,0.73,-4.09,-5.21,12.16,0.8563877626402656
216,0.33,0.23,0.76,-1.43,-6.71,13.32,0.8598837130682265
217,0.29,0.25,0.8,-0.49,-10.67,15.0,0.886904729945669
218,0.27,0.28,0.83,-1.55,-18.87,17.77,0.916624241442479
219,0.25,0.28,0.86,-4.24,-28.23,19.88,0.9383496150156401
220,0.26,0.27,0.87,-6.25,-38.54,20.95,0.9473119866232033
221,0.28,0.27,0.88,-9.15,-48.72,20.76,0.9621330469326994
222,0.33,0.24,0.88,-11.13,-56.89,18.51,0.97
223,0.36,0.2,0.89,-11.25,-63.14,15.91,0.9806630410084801
224,0.41,0.15,0.89,-10.98,-68.84,13.29,0.9913122616007531
225,0.44,0.11,0.9,-8.45,-73.26,8.2,1.0078194282707593
226,0.47,0.11,0.89,-6.28,-77.9,3.66,1.0124722218411724
227,0.48,0.11,0.87,-3.93,-81.19,0.61,0.999699954986495
228,0.52,0.11,0.84,-0.03,-78.99,-0.34,0.9940321926376429
229,0.58,0.13,0.81,4.7,-73.48,0.03,1.0046890066085128
230,0.61,0.15,0.76,8.6,-65.18,-3.29,0.9860020283954795
231,0.66,0.18,0.74,9.02,-57.32,-1.98,1.0077698149875298
232,0.67,0.21,0.71,9.42,-49.91,-4.79,0.9985489472229191
233,0.67,0.22,0.7,10.15,-41.71,-6.49,0.9936297097007517
234,0.7,0.24,0.7,10.43,-32.99,-9.91,1.0186265262597474
235,0.71,0.26,0.7,10.34,-23.2,-12.53,1.0303882763308208
236,0.68,0.27,0.72,10.3,-14.51,-11.77,1.0264989040422792
237,0.64,0.28,0.75,11.19,-8.66,-8.45,1.0249390225764652
238,0.59,0.29,0.8,11.22,-8.11,-7.04,1.0354709073653399
239,0.59,0.27,0.83,13.54,-2.38,-6.43,1.0535179163165664
240,0.54,0.27,0.85,15.46,-4.21,-2.93,1.0425929215182692
241,0.51,0.27,0.9,18.93,-3.66,0.34,1.0691117808723276
242,0.47,0.26,0.94,21.77,-6.4,4.27,1.082635672791175
243,0.47,0.25,0.97,25.43,-9.09,8.66,1.106480908104609
244,0.46,0.25,0.99,28.66,-12.53,12.2,1.1199107107265294
245,0.46,0.25,1.0,31.28,-15.98,15.67,1.1287603820120549
246,0.46,0.25,1.0,33.72,-19.54,18.66,1.1287603820120549
247,0.49,0.25,1.01,35.4,-22.56,20.06,1.1500869532344065
248,0.5,0.24,1.0,35.79,-25.55,20.52,1.1435033887138244
249,0.5,0.25,1.0,35.09,-29.48,19.88,1.14564392373896
250,0.51,0.26,0.99,33.17,-32.84,17.71,1.1435908359199105
251,0.52,0.28,0.97,29.54,-37.9,14.85,1.135649593844862
252,0.53,0.27,0.96,26.52,-42.5,11.86,1.12933608815091
253,0.54,0.29,0.93,22.59,-45.67,8.14,1.113822247937255
254,0.56,0.31,0.91,17.68,-48.57,3.08,1.112564604865713
255,0.59,0.32,0.87,14.3,-51.04,-0.21,1.0988175462741756
256,0.61,0.32,0.83,11.28,-51.22,-2.74,1.0786102168995062
257,0.64,0.35,0.81,6.13,-48.93,-5.3,1.0900458705944445
258,0.67,0.35,0.78,2.07,-45.0,-6.22,1.0861859877571614
259,0.69,0.34,0.76,-0.76,-40.3,-7.04,1.0813417591122614
260,0.71,0.34,0.74,-3.2,-34.73,-6.34,1.0804165863221464
261,0.72,0.33,0.74,-4.45,-28.23,-6.1,1.0839280418920807
262,0.72,0.33,0.74,-5.03,-21.77,-5.03,1.0839280418920807
263,0.71,0.33,0.75,-5.21,-15.61,-3.66,1.0842047777057617
264,0.68,0.33,0.78,-5.03,-10.46,-1.95,1.0861399541495562
265,0.65,0.32,0.8,-4.12,-7.16,0.43,1.079305332146562
266,0.64,0.32,0.81,-3.14,-4.6,2.41,1.0807867504739315
267,0.62,0.32,0.83,-1.55,-3.14,4.02,1.0842970072816764
268,0.6,0.31,0.86,0.82,-2.8,5.73,1.0934806811279292
269,0.58,0.31,0.87,2.59,-3.32,7.56,1.090596167240652
270,0.58,0.3,0.88,5.15,-4.36,9.15,1.095810202544218
271,0.58,0.28,0.89,7.59,-5.52,9.45,1.0985900054160334
272,0.59,0.26,0.91,10.18,-7.23,10.03,1.1152578177264663
273,0.59,0.25,0.92,13.02,-8.78,8.69,1.121160113453917
274,0.58,0.25,0.93,15.15,-10.64,8.45,1.1241885962773328
275,0.57,0.25,0.94,16.71,-13.84,7.62,1.1273863579093015
276,0.58,0.26,0.92,17.29,-16.71,6.86,1.118212859879549
277,0.58,0.26,0.93,17.23,-19.54,5.15,1.1264546151532249
278,0.59,0.27,0.92,16.86,-22.38,3.23,1.1257886124845997
279,0.59,0.28,0.91,16.07,-24.73,1.89,1.120089282155668
280,0.59,0.3,0.9,14.97,-27.07,-0.3,1.1171839597846005
281,0.59,0.32,0.9,11.92,-29.94,-1.28,1.1227199116431488
282,0.6,0.32,0.89,10.06,-31.28,-2.74,1.120044641967453
283,0.6,0.33,0.87,7.9,-32.5,-3.99,1.107158525234756
284,0.61,0.34,0.84,5.91,-32.96,-5.52,1.0923827168167757
285,0.63,0.36,0.81,3.99,-31.92,-6.37,1.0874741376235115
286,0.66,0.37,0.79,1.37,-28.6,-6.62,1.0938921336219583
287,0.67,0.38,0.78,-1.01,-25.27,-6.77,1.0962207806824318
288,0.68,0.39,0.76,-2.53,-20.3,-7.13,1.091833320612629
289,0.69,0.39,0.76,-4.42,-15.4,-6.65,1.0980892495603443
290,0.69,0.39,0.76,-5.21,-10.3,-6.59,1.0980892495603443
291,0.67,0.39,0.77,-5.91,-5.46,-5.91,1.092657311328671
292,0.64,0.41,0.78,-5.91,-1.22,-4.42,1.0890821823902914
293,0.62,0.42,0.78,-5.4,1.4,-2.71,1.0812955192730616
294,0.59,0.43,0.81,-5.46,2.47,-0.12,1.0904586191139947
295,0.57,0.43,0.82,-5.21,3.32,2.38,1.0872902096496593
296,0.56,0.41,0.82,-4.05,3.05,4.63,1.074290463515338
297,0.55,0.38,0.85,-0.67,2.62,6.28,1.081387996974259
298,0.55,0.36,0.87,2.59,1.65,6.25,1.0904127658827183
299,0.54,0.35,0.9,5.73,-0.52,5.76,1.1063905277974861
300,0.53,0.34,0.92,8.75,-3.9,5.0,1.114854250563723
301,0.52,0.33,0.92,11.4,-7.1,4.18,1.107113363662457
302,0.53,0.33,0.92,13.75,-10.52,3.08,1.1118453129819814
303,0.52,0.36,0.9,14.21,-13.99,1.92,1.1
304,0.52,0.37,0.9,13.6,-17.41,0.95,1.103313192162588
305,0.53,0.38,0.88,12.23,-21.22,-0.58,1.0953081758117211
306,0.54,0.39,0.87,9.88,-24.45,-2.23,1.0957189420649804
307,0.53,0.4,0.86,7.68,-26.83,-3.35,1.0865081684000355
308,0.55,0.39,0.86,5.3,-29.24,-4.48,1.0927945827098522
309,0.57,0.38,0.83,3.75,-30.34,-5.49,1.0761970079869205
310,0.58,0.37,0.8,2.77,-30.52,-6.74,1.0551303237041385
311,0.6,0.37,0.78,2.01,-29.39,-8.11,1.0513324878457815
312,0.61,0.38,0.75,0.91,-27.71,-8.48,1.0387492478938312
313,0.65,0.37,0.74,0.06,-23.81,-8.05,1.0521406750050109
314,0.67,0.38,0.72,-0.64,-18.69,-6.86,1.054371850914088
315,0.68,0.36,0.7,-1.07,-13.32,-5.67,1.0401922899156675
316,0.68,0.35,0.7,-0.55,-7.71,-4.12,1.0367738422626218
317,0.68,0.34,0.71,0.3,-2.74,-2.8,1.040240356840668
318,0.67,0.34,0.71,1.07,2.41,-2.35,1.0337311062360464
319,0.67,0.33,0.73,2.59,6.46,-1.68,1.0443658362853507
320,0.65,0.32,0.74,3.69,10.09,-1.07,1.035615758860399
321,0.64,0.32,0.76,4.94,12.32,-0.3,1.043839068055991
322,0.63,0.32,0.78,6.46,14.12,0.34,1.0524732775705044
323,0.62,0.31,0.78,7.96,15.27,1.04,1.0435037134576954
324,0.61,0.3,0.81,9.05,16.22,1.46,1.057449762400087
325,0.6,0.3,0.82,10.43,16.13,1.92,1.0594338110519221
326,0.59,0.3,0.84,10.79,15.0,2.65,1.0694391053257777
327,0.58,0.29,0.85,11.46,13.05,3.63,1.0691117808723276
328,0.57,0.3,0.86,11.37,10.95,3.93,1.0744766167767448
329,0.56,0.3,0.86,10.91,7.62,3.72,1.0692053123698928
330,0.57,0.29,0.87,10.67,4.05,2.96,1.0797684937059424
331,0.57,0.28,0.87,10.61,0.61,1.68,1.0771258050942796
332,0.57,0.27,0.87,10.34,-2.35,0.46,1.074569681314339
333,0.58,0.26,0.87,10.21,-5.12,-1.13,1.0774506949276148
334,0.58,0.26,0.86,9.42,-7.35,-1.86,1.069392350823588
335,0.59,0.27,0.85,9.05,-9.12,-2.56,1.0693455942771728
336,0.59,0.26,0.83,8.69,-10.55,-3.26,1.0509995242624994
337,0.6,0.27,0.83,8.45,-11.28,-3.84,1.0591506030777682
338,0.6,0.28,0.82,7.99,-11.8,-4.36,1.0539449701004318
339,0.62,0.28,0.81,7.32,-11.65,-4.73,1.0577806956075537
340,0.61,0.28,0.78,7.47,-10.4,-5.24,1.0290286682109493
341,0.65,0.29,0.78,7.2,-8.17,-5.18,1.055935604097144
342,0.66,0.29,0.76,8.11,-5.64,-5.21,1.0475208828467335
343,0.66,0.3,0.75,8.93,-3.05,-5.03,1.0431203190428227
344,0.67,0.31,0.75,9.73,-0.4,-4.6,1.0523782589924593
345,0.65,0.33,0.74,10.15,1.71,-4.18,1.0387492478938314
346,0.65,0.34,0.75,10.58,3.51,-3.81,1.0490948479522717
347,0.64,0.35,0.75,10.82,5.18,-2.77,1.0462313319720453
348,0.63,0.35,0.75,11.83,6.46,-1.98,1.0401442207694085
349,0.62,0.36,0.76,12.8,6.89,-1.16,1.0447966309287182
350,0.61,0.37,0.77,13.69,6.98,-0.06,1.0497142468310126
351,0.6,0.37,0.77,14.33,7.47,0.73,1.0439348638684312
352,0.6,0.37,0.77,15.15,6.89,1.4,1.0439348638684312
353,0.59,0.38,0.78,16.01,6.34,1.83,1.049237818609299
354,0.58,0.39,0.79,16.07,5.64,2.26,1.0547985589675406
355,0.57,0.41,0.8,15.43,3.93,2.65,1.0644247272588137
356,0.57,0.41,0.8,15.03,2.26,2.93,1.0644247272588137
357,0.57,0.41,0.8,13.87,0.76,2.47,1.0644247272588137
358,0.57,0.42,0.81,12.56,-0.76,2.74,1.0758252646224664
359,0.57,0.42,0.8,10.91,-1.83,2.5,1.0683164325236227
360,0.57,0.42,0.8,8.99,-3.41,1.74,1.0683164325236227
361,0.58,0.41,0.79,7.35,-4.21,1.52,1.0623558725775464
362,0.58,0.41,0.79,6.19,-4.76,1.13,1.0623558725775464
363,0.59,0.42,0.79,4.82,-5.03,1.37,1.0717275773255068
364,0.59,0.41,0.79,3.29,-4.27,1.37,1.0678483038334612
365,0.6,0.41,0.78,1.86,-3.41,1.28,1.0660675400742676
366,0.61,0.4,0.77,1.04,-2.47,0.95,1.0606601717798212
367,0.61,0.39,0.77,-0.09,-1.28,0.58,1.056929515152264
368,0.61,0.39,0.78,-0.52,-0.06,0.49,1.0642368157510809
369,0.61,0.38,0.78,-0.64,0.98,0.61,1.06061303028013
370,0.6,0.37,0.78,-0.3,1.89,0.52,1.0513324878457815
371,0.61,0.36,0.78,0.7,3.38,0.15,1.0536128321162381
372,0.6,0.36,0.78,1.49,4.39,0.4,1.047854951794379
373,0.6,0.36,0.78,2.68,5.3,0.7,1.047854951794379
374,0.59,0.36,0.79,3.9,6.22,1.01,1.0496666137398103
375,0.59,0.36,0.79,5.15,6.55,1.31,1.0496666137398103
376,0.58,0.35,0.79,6.16,7.23,1.28,1.0406728592598158
377,0.59,0.35,0.8,7.71,7.93,2.1,1.0538500842150178
378,0.58,0.35,0.8,8.93,8.57,2.62,1.0482843125793688
379,0.58,0.34,0.8,10.3,8.93,2.87,1.0449880382090506
380,0.57,0.33,0.8,12.2,9.21,2.8,1.036243214694311
381,0.58,0.32,0.81,13.29,9.63,2.38,1.0463746938836012
382,0.57,0.33,0.82,13.66,8.84,1.92,1.0517604289951206
383,0.56,0.33,0.82,13.51,7.41,0.76,1.0463746938836012
384,0.54,0.33,0.84,12.2,5.34,-0.3,1.0517128885774862
385,0.55,0.33,0.83,11.65,5.27,-1.49,1.048951857808546
386,0.54,0.33,0.84,9.91,3.84,-2.5,1.0517128885774862
387,0.53,0.33,0.83,9.3,1.49,-3.14,1.03860483341837
388,0.55,0.33,0.83,7.2,0.98,-4.39,1.048951857808546
389,0.55,0.32,0.84,6.04,0.15,-5.3,1.0538026380684384
390,0.56,0.31,0.83,5.58,0.18,-6.34,1.0481412118603104
391,0.56,0.31,0.83,4.91,0.18,-7.44,1.0481412118603104
392,0.56,0.32,0.83,4.51,0.61,-7.93,1.051142235855833
393,0.56,0.32,0.83,4.33,0.52,-8.57,1.051142235855833
394,0.56,0.32,0.83,4.42,0.73,-8.96,1.051142235855833
395,0.56,0.32,0.84,4.24,0.58,-9.3,1.0590561835898982
396,0.56,0.33,0.83,4.27,0.76,-9.27,1.054229576515476
397,0.56,0.33,0.83,4.7,1.04,-9.82,1.054229576515476
398,0.57,0.33,0.82,4.39,1.37,-10.27,1.0517604289951206
399,0.57,0.34,0.82,5.09,1.86,-10.46,1.0549407566304374
400,0.56,0.35,0.82,5.09,2.41,-10.67,1.052853266129711
401,0.58,0.35,0.81,6.07,3.78,-9.48,1.055935604097144
402,0.58,0.36,0.81,6.4,5.18,-8.66,1.059292216529509
403,0.58,0.36,0.81,7.01,6.86,-8.32,1.059292216529509
404,0.59,0.37,0.8,7.53,7.8,-8.05,1.0606601717798212
405,0.58,0.37,0.8,7.84,7.8,-8.54,1.0551303237041385
406,0.57,0.38,0.8,8.35,8.26,-7.74,1.0532331175955303
407,0.57,0.4,0.8,8.81,8.45,-6.98,1.0606130302801302
408,0.57,0.41,0.8,8.72,8.96,-6.25,1.0644247272588137
409,0.56,0.41,0.79,9.18,8.63,-5.4,1.051570254429061
410,0.58,0.41,0.79,9.57,8.6,-4.33,1.0623558725775464
411,0.56,0.43,0.79,10.52,7.07,-5.03,1.0595281968876527
412,0.55,0.42,0.81,9.88,5.46,-5.21,1.065363787633126
413,0.55,0.41,0.8,9.63,6.1,-3.26,1.0538500842150178
414,0.55,0.42,0.8,8.84,4.66,-2.65,1.0577806956075537
415,0.55,0.41,0.8,8.72,3.93,-2.8,1.0538500842150178
416,0.57,0.42,0.8,8.45,3.6,-2.93,1.0683164325236227
417,0.57,0.42,0.8,7.47,2.68,-3.51,1.0683164325236227
418,0.58,0.42,0.8,6.04,2.26,-4.05,1.0736852425175638
419,0.58,0.42,0.8,4.91,2.16,-4.91,1.0736852425175638
420,0.58,0.41,0.81,3.75,2.29,-5.3,1.0773114684249863
421,0.59,0.41,0.81,2.59,2.47,-5.88,1.082728036027515
422,0.58,0.41,0.82,1.92,2.35,-6.19,1.0848502200764858
423,0.58,0.41,0.82,0.82,2.53,-6.68,1.0848502200764858
424,0.59,0.4,0.82,-0.06,2.68,-6.52,1.0865081684000355
425,0.58,0.4,0.82,-0.46,2.59,-6.62,1.0811105401391663
426,0.58,0.39,0.82,-0.46,3.11,-6.59,1.0774506949276146
427,0.58,0.39,0.83,-0.43,3.41,-6.22,1.085080642164443
428,0.58,0.39,0.84,-0.06,3.78,-5.64,1.092748827498799
429,0.57,0.39,0.83,0.24,3.81,-4.91,1.0797684937059424
430,0.57,0.39,0.84,0.98,4.3,-3.9,1.0874741376235115
431,0.57,0.39,0.84,1.65,4.09,-3.26,1.0874741376235115
432,0.56,0.38,0.84,2.53,4.15,-2.38,1.078702924812944
433,0.57,0.38,0.84,3.75,4.27,-1.43,1.0839280418920805
434,0.55,0.38,0.86,4.97,4.12,-0.46,1.0892658077806354
435,0.55,0.38,0.85,6.1,3.69,0.91,1.081387996974259
436,0.55,0.38,0.86,7.41,3.26,2.44,1.0892658077806354
437,0.55,0.38,0.86,8.78,2.56,3.02,1.0892658077806354
438,0.55,0.37,0.86,10.03,1.95,3.63,1.0858176642512314
439,0.55,0.37,0.87,10.58,1.34,3.99,1.0937549999885714
440,0.56,0.37,0.86,11.25,0.34,4.09,1.0909170454255448
441,0.55,0.37,0.85,11.37,-0.88,3.93,1.0779146533933008
442,0.56,0.38,0.85,11.34,-1.71,3.57,1.0865081684000355
443,0.55,0.38,0.84,10.76,-2.62,3.75,1.0735455276791943
444,0.56,0.38,0.85,9.85,-3.75,3.11,1.0865081684000355
445,0.57,0.38,0.85,8.75,-4.39,2.13,1.0916959283610064
446,0.58,0.38,0.84,7.53,-4.97,1.31,1.0892199043352082
447,0.58,0.37,0.83,6.92,-5.15,0.24,1.0780538019969133
448,0.58,0.37,0.82,5.67,-5.15,-0.85,1.0703737664946762
449,0.59,0.37,0.82,4.88,-5.52,-1.65,1.0758252646224664
450,0.59,0.38,0.81,4.12,-5.18,-2.59,1.0717275773255068
451,0.59,0.38,0.81,3.6,-4.7,-2.96,1.0717275773255068
452,0.59,0.38,0.8,3.11,-4.02,-3.35,1.0641898326896382
453,0.59,0.38,0.8,2.29,-2.87,-3.66,1.0641898326896382
454,0.6,0.38,0.8,2.26,-1.86,-3.78,1.0697663296253066
455,0.6,0.39,0.8,2.26,-1.04,-4.3,1.0733592129385205
456,0.6,0.39,0.8,2.9,0.15,-4.66,1.0733592129385205
457,0.59,0.39,0.8,2.74,1.01,-4.05,1.0678014796768172
458,0.58,0.39,0.8,2.71,1.74,-3.2,1.0623088063270492
459,0.58,0.39,0.81,2.87,2.2,-2.26,1.0698598038995577
460,0.58,0.38,0.81,3.38,2.59,-1.55,1.066255128944288
461,0.57,0.38,0.82,4.51,2.59,-1.1,1.0685036265731622
462,0.57,0.37,0.82,5.4,2.04,-0.64,1.0649882628461216
463,0.57,0.37,0.83,6.04,1.8,-0.03,1.072706856508338
464,0.56,0.37,0.83,6.83,1.01,0.21,1.0674268124794317
465,0.56,0.37,0.83,7.59,0.76,0.3,1.0674268124794317
466,0.56,0.37,0.83,8.05,-0.09,0.88,1.0674268124794317
467,0.56,0.37,0.84,8.29,-1.01,1.13,1.0752209075348191
468,0.57,0.37,0.83,8.17,-1.83,0.82,1.072706856508338
469,0.57,0.38,0.82,8.26,-2.84,0.76,1.0685036265731622
470,0.57,0.39,0.82,7.35,-3.05,0.55,1.072100741535048
471,0.57,0.39,0.82,6.31,-3.78,-0.21,1.072100741535048
472,0.57,0.38,0.81,5.76,-3.63,-0.49,1.060848716830067
473,0.58,0.38,0.8,4.54,-3.17,-1.01,1.0586784214292837
474,0.58,0.39,0.8,2.96,-3.2,-1.34,1.0623088063270492
475,0.58,0.39,0.8,1.86,-3.26,-2.35,1.0623088063270492
476,0.58,0.38,0.8,1.59,-3.23,-2.8,1.0586784214292837
477,0.58,0.38,0.81,0.03,-3.02,-2.59,1.066255128944288
478,0.57,0.38,0.8,-0.43,-3.38,-2.8,1.0532331175955303
479,0.59,0.37,0.8,-0.43,-1.52,-3.48,1.0606601717798212
480,0.59,0.37,0.79,-0.98,-1.1,-3.48,1.0531381675734672
481,0.59,0.37,0.8,-1.19,-0.12,-3.57,1.0606601717798212
482,0.59,0.37,0.8,-0.61,0.46,-3.29,1.0606601717798212
483,0.58,0.37,0.79,-0.37,1.28,-3.35,1.0475686135046238
484,0.59,0.37,0.79,0.09,1.86,-3.45,1.0531381675734672
485,0.59,0.37,0.79,-0.24,2.44,-3.69,1.0531381675734672
486,0.58,0.37,0.8,0.12,2.77,-3.6,1.0551303237041385
487,0.57,0.38,0.8,0.52,2.84,-3.54,1.0532331175955303
488,0.57,0.37,0.81,1.37,2.47,-3.69,1.0573079021741965
489,0.57,0.37,0.81,1.16,2.47,-3.02,1.0573079021741965
490,0.56,0.37,0.81,0.85,2.65,-2.32,1.0519505691808908
491,0.57,0.37,0.81,1.19,2.16,-2.01,1.0573079021741965
492,0.57,0.36,0.8,1.8,2.13,-1.68,1.0461835403025608
493,0.57,0.37,0.8,2.1,1.83,-1.68,1.0496666137398103
494,0.57,0.36,0.81,2.47,1.25,-1.43,1.0538500842150178
495,0.57,0.36,0.81,2.9,0.64,-1.49,1.0538500842150178
496,0.58,0.36,0.8,3.38,0.34,-1.31,1.0516653460107925
497,0.58,0.36,0.8,3.87,0.15,-1.28,1.0516653460107925
498,0.58,0.37,0.8,3.48,-0.58,-1.07,1.0551303237041385
499,0.58,0.36,0.79,4.27,-0.82,-1.28,1.0440785411069418
500,0.58,0.37,0.8,4.48,-0.73,-1.28,1.0551303237041385
501,0.58,0.37,0.8,4.76,-1.16,-1.37,1.0551303237041385
502,0.57,0.38,0.8,4.79,-1.01,-1.37,1.0532331175955303
503,0.58,0.38,0.8,4.76,-1.46,-1.52,1.0586784214292837
504,0.58,0.38,0.79,4.42,-1.68,-2.04,1.0511422358558333
505,0.58,0.37,0.79,3.69,-1.34,-2.9,1.0475686135046238
506,0.58,0.37,0.79,3.72,-1.04,-3.11,1.0475686135046238
507,0.58,0.37,0.8,2.96,-1.01,-3.51,1.0551303237041385
508,0.59,0.37,0.8,2.87,-0.85,-3.99,1.0606601717798212
509,0.58,0.37,0.8,2.65,-1.13,-4.18,1.0551303237041385
510,0.57,0.37,0.8,2.44,-1.04,-4.7,1.0496666137398103
511,0.57,0.37,0.8,1.86,-1.25,-5.03,1.0496666137398103
512,0.58,0.37,0.81,1.8,-1.34,-5.52,1.0627323275406653
513,0.56,0.37,0.8,1.65,-1.43,-5.73,1.044270080008041
514,0.58,0.37,0.8,2.04,-1.89,-5.91,1.0551303237041385
515,0.56,0.38,0.82,2.8,-2.07,-6.16,1.063202708800161
516,0.55,0.39,0.81,2.87,-1.86,-6.07,1.0538975282255862
517,0.55,0.39,0.82,3.05,-1.86,-5.88,1.0616025621672172
518,0.55,0.38,0.82,3.69,-2.07,-5.82,1.0579697538209683
519,0.55,0.39,0.82,3.78,-2.2,-5.34,1.0616025621672172
520,0.55,0.39,0.81,4.66,-2.2,-4.97,1.0538975282255862
521,0.55,0.38,0.81,5.0,-2.56,-4.91,1.05023806824929
522,0.56,0.39,0.81,5.4,-2.96,-4.57,1.0591506030777682
523,0.56,0.38,0.82,5.64,-2.96,-4.33,1.063202708800161
524,0.56,0.38,0.81,6.01,-3.93,-3.96,1.0555093557141026
525,0.56,0.39,0.82,6.59,-4.36,-3.87,1.0668176976409793
526,0.56,0.38,0.81,7.01,-4.45,-3.29,1.0555093557141026
527,0.57,0.38,0.82,7.2,-4.7,-2.87,1.0685036265731622
528,0.57,0.37,0.81,7.8,-4.85,-3.08,1.0573079021741965
529,0.58,0.37,0.81,8.29,-4.85,-2.8,1.0627323275406653
530,0.58,0.37,0.8,8.57,-4.79,-3.32,1.0551303237041385
531,0.58,0.37,0.8,8.78,-4.36,-3.93,1.0551303237041385
532,0.59,0.37,0.79,8.99,-3.93,-4.09,1.0531381675734672
533,0.59,0.37,0.79,8.99,-3.66,-4.6,1.0531381675734672
534,0.58,0.37,0.8,9.45,-3.66,-4.88,1.0551303237041385
535,0.59,0.38,0.79,8.84,-3.51,-5.0,1.0566929544574433
536,0.59,0.38,0.79,8.72,-3.6,-5.3,1.0566929544574433
537,0.59,0.38,0.79,8.32,-3.35,-5.85,1.0566929544574433
538,0.59,0.38,0.79,7.8,-3.32,-6.07,1.0566929544574433
539,0.59,0.39,0.79,7.26,-2.47,-6.43,1.0603301372685774
540,0.58,0.4,0.79,6.92,-2.13,-6.25,1.058536725862641
541,0.58,0.39,0.79,6.07,-1.86,-6.83,1.0547985589675406
542,0.59,0.39,0.79,5.15,-1.46,-7.23,1.0603301372685774
543,0.58,0.4,0.79,4.48,-1.43,-7.9,1.058536725862641
544,0.58,0.4,0.79,3.38,-1.07,-7.41,1.058536725862641
545,0.58,0.4,0.79,2.93,-1.01,-7.5,1.058536725862641
546,0.58,0.4,0.8,2.16,-0.4,-7.35,1.0660206376989143
547,0.58,0.4,0.8,2.16,-0.27,-7.38,1.0660206376989143
548,0.58,0.39,0.81,1.62,0.18,-7.38,1.0698598038995577
549,0.58,0.4,0.8,1.34,0.06,-7.2,1.0660206376989143
550,0.58,0.38,0.81,1.65,0.12,-7.1,1.066255128944288
551,0.57,0.39,0.81,1.86,0.27,-6.8,1.0644716999526105
552,0.58,0.39,0.81,2.59,0.49,-6.62,1.0698598038995577
553,0.57,0.38,0.81,2.93,0.21,-6.52,1.060848716830067
554,0.57,0.38,0.81,3.96,0.18,-5.95,1.060848716830067
555,0.57,0.38,0.81,4.57,0.12,-5.24,1.060848716830067
556,0.57,0.38,0.81,5.43,-0.12,-5.06,1.060848716830067
557,0.56,0.38,0.81,6.74,-0.52,-4.02,1.0555093557141026
558,0.56,0.38,0.81,7.44,-1.19,-3.84,1.0555093557141026
559,0.57,0.38,0.81,8.63,-1.37,-3.32,1.060848716830067
560,0.57,0.38,0.8,9.36,-1.65,-3.14,1.0532331175955303
561,0.59,0.39,0.8,10.0,-1.19,-2.84,1.0678014796768172
562,0.59,0.39,0.78,10.49,-0.91,-2.23,1.0529007550571896
563,0.59,0.4,0.78,10.82,0.27,-2.68,1.0566456359631644
564,0.59,0.39,0.78,10.73,0.55,-2.04,1.0529007550571896
565,0.59,0.4,0.76,10.37,1.1,-2.23,1.0419692893746917
566,0.6,0.4,0.77,9.88,2.1,-2.47,1.0549407566304376
567,0.6,0.41,0.76,9.33,2.65,-2.59,1.05152270541344
568,0.6,0.41,0.76,8.48,3.32,-2.62,1.05152270541344
569,0.61,0.41,0.76,7.84,3.87,-3.11,1.0572606112023657
570,0.61,0.41,0.77,7.32,4.51,-3.45,1.0644716999526103
571,0.61,0.42,0.77,6.22,5.0,-3.99,1.068363234110946
572,0.61,0.41,0.77,5.7,5.34,-4.36,1.0644716999526103
573,0.61,0.41,0.77,4.94,5.85,-5.06,1.0644716999526103
574,0.61,0.41,0.77,4.12,5.58,-5.79,1.0644716999526103
575,0.61,0.4,0.77,3.38,5.76,-6.25,1.0606601717798212
576,0.61,0.4,0.77,2.65,5.88,-8.11,1.0606601717798212
577,0.61,0.41,0.78,2.32,6.49,-8.69,1.0717275773255068
578,0.61,0.42,0.77,1.46,6.46,-8.72,1.068363234110946
579,0.6,0.42,0.77,0.4,7.26,-9.18,1.06268527796333
580,0.6,0.42,0.77,0.21,7.84,-8.96,1.06268527796333
581,0.59,0.42,0.78,-0.12,8.41,-8.84,1.064377752492037
582,0.59,0.42,0.78,-0.34,8.32,-8.9,1.064377752492037
583,0.59,0.42,0.79,-0.24,8.35,-8.14,1.0717275773255068
584,0.58,0.42,0.78,-0.03,8.14,-8.14,1.058867319355924
585,0.58,0.42,0.8,0.55,8.08,-7.59,1.0736852425175638
586,0.58,0.41,0.8,1.46,8.23,-7.38,1.0698130677833395
587,0.58,0.42,0.81,2.16,8.17,-6.95,1.0811567878897121
588,0.57,0.42,0.8,2.93,7.99,-6.25,1.0683164325236227
589,0.57,0.41,0.81,3.78,7.68,-5.61,1.0719608201795436
590,0.56,0.42,0.82,4.63,7.41,-4.79,1.0781465577554843
591,0.56,0.42,0.82,5.3,7.16,-3.54,1.0781465577554843
592,0.56,0.43,0.82,6.1,6.95,-3.11,1.082081327812286
593,0.56,0.42,0.82,6.68,6.52,-2.16,1.0781465577554843
594,0.56,0.42,0.82,7.35,6.31,-1.52,1.0781465577554843
595,0.57,0.42,0.82,8.05,6.49,-1.19,1.0833743581975714
596,0.57,0.42,0.81,8.48,6.74,-0.52,1.0758252646224664
597,0.57,0.42,0.81,8.9,6.68,-0.03,1.0758252646224664
598,0.57,0.42,0.81,9.42,6.74,0.18,1.0758252646224664
599,0.57,0.42,0.81,9.63,6.98,0.46,1.0758252646224664
600,0.57,0.43,0.81,9.6,7.1,0.85,1.0797684937059426
601,0.58,0.43,0.81,9.42,7.16,1.31,1.085080642164443
602,0.57,0.44,0.8,9.15,7.68,1.22,1.0763363786474933
603,0.57,0.44,0.8,8.75,7.47,1.31,1.0763363786474933
604,0.57,0.45,0.8,7.59,7.23,1.37,1.0804628637764466
605,0.57,0.44,0.81,6.68,6.8,1.22,1.083789647487002
606,0.57,0.45,0.81,5.58,6.43,0.46,1.0878878618681247
607,0.58,0.44,0.81,4.21,5.79,0.73,1.0890821823902914
608,0.57,0.43,0.82,3.57,5.18,0.18,1.0872902096496593
609,0.57,0.43,0.82,2.59,5.21,-0.37,1.0872902096496593
610,0.57,0.42,0.82,1.98,4.79,-0.58,1.0833743581975714
611,0.56,0.42,0.82,1.77,4.57,-0.76,1.0781465577554843
612,0.57,0.42,0.82,1.22,4.48,-0.73,1.0833743581975714
613,0.56,0.41,0.83,1.59,3.81,-1.19,1.081942697188719
614,0.58,0.4,0.83,1.62,3.93,-1.25,1.0887148386974432
615,0.56,0.4,0.83,1.86,3.38,-1.25,1.0781929326423914
616,0.56,0.4,0.83,2.56,3.23,-1.16,1.0781929326423914
617,0.56,0.4,0.82,3.11,3.14,-1.22,1.0705138952858109
618,0.55,0.4,0.82,3.51,2.77,-0.98,1.0653168542738822
619,0.55,0.4,0.83,4.51,2.56,-0.4,1.0730330842988953
620,0.54,0.4,0.84,5.03,2.5,0.06,1.0757323087088162
621,0.55,0.41,0.84,5.95,2.32,0.52,1.0845275469069469
622,0.54,0.41,0.84,6.89,2.04,0.95,1.0794906206169648
623,0.54,0.41,0.83,7.74,1.65,1.49,1.0717275773255068
624,0.53,0.41,0.83,8.26,1.59,2.29,1.0667239567948215
625,0.54,0.41,0.84,9.79,1.07,3.08,1.0794906206169648
626,0.54,0.41,0.84,10.85,0.91,3.84,1.0794906206169648
627,0.54,0.41,0.83,11.4,0.55,4.36,1.0717275773255068
628,0.54,0.41,0.83,12.26,0.58,5.12,1.0717275773255068
629,0.54,0.41,0.83,12.9,0.12,5.27,1.0717275773255068
630,0.54,0.41,0.83,13.41,0.0,5.27,1.0717275773255068
631,0.54,0.41,0.83,13.84,-0.24,5.21,1.0717275773255068
632,0.54,0.41,0.83,14.36,-0.37,5.12,1.0717275773255068
633,0.54,0.42,0.83,14.54,-0.91,4.82,1.075592859775482
634,0.54,0.41,0.82,14.36,-0.95,5.27,1.0640018796975876
635,0.54,0.41,0.82,13.9,-0.7,6.04,1.0640018796975876
636,0.53,0.42,0.82,13.11,-0.79,5.76,1.0628734637763801
637,0.55,0.42,0.81,12.01,-0.98,5.21,1.065363787633126
638,0.55,0.42,0.8,10.64,-0.98,4.48,1.0577806956075537
639,0.55,0.42,0.8,9.51,-0.91,3.26,1.0577806956075537
640,0.56,0.42,0.8,7.87,-0.85,2.68,1.063014581273465
641,0.57,0.42,0.8,6.19,-0.85,1.77,1.0683164325236227
642,0.57,0.41,0.79,4.79,-0.3,0.34,1.056929515152264
643,0.58,0.41,0.79,3.35,0.37,-0.88,1.0623558725775464
644,0.58,0.41,0.79,2.2,1.04,-1.83,1.0623558725775464
645,0.57,0.4,0.79,1.49,1.4,-2.59,1.0530906893520615
646,0.57,0.4,0.79,0.7,1.65,-3.57,1.0530906893520615
647,0.57,0.4,0.78,0.43,2.04,-4.51,1.045609869884557
648,0.56,0.4,0.79,0.21,2.38,-4.97,1.0477117924314874
649,0.56,0.4,0.8,-0.12,2.26,-5.4,1.0552724766618335
650,0.56,0.41,0.8,0.37,2.74,-5.21,1.059103394386025
651,0.55,0.41,0.81,0.52,2.77,-4.91,1.061461256947233
652,0.55,0.41,0.81,1.13,2.74,-4.21,1.061461256947233
653,0.55,0.41,0.81,2.13,2.87,-3.63,1.061461256947233
654,0.55,0.41,0.81,2.99,3.08,-3.23,1.061461256947233
655,0.54,0.41,0.82,3.81,2.71,-2.35,1.0640018796975876
656,0.54,0.41,0.81,5.06,3.05,-1.55,1.0563143471523995
657,0.54,0.42,0.81,6.07,2.8,-0.18,1.0602358228243376
658,0.54,0.42,0.82,6.92,2.65,0.24,1.0678951259369995
659,0.55,0.42,0.82,7.23,2.59,1.01,1.0729864864013898
660,0.54,0.42,0.82,7.84,2.71,1.74,1.0678951259369995
661,0.55,0.42,0.81,8.78,2.32,2.32,1.065363787633126
662,0.55,0.42,0.82,9.02,2.26,2.26,1.0729864864013898
663,0.55,0.42,0.81,9.36,2.16,2.07,1.065363787633126
664,0.55,0.42,0.81,10.03,1.74,2.32,1.065363787633126
665,0.55,0.42,0.8,10.03,1.71,2.16,1.0577806956075537
666,0.55,0.42,0.8,9.85,1.55,2.32,1.0577806956075537
667,0.56,0.43,0.8,9.6,1.22,2.2,1.0670051546267245
668,0.56,0.44,0.79,9.12,1.1,2.32,1.0636258740741502
669,0.56,0.44,0.79,8.2,1.34,1.95,1.0636258740741502
670,0.56,0.43,0.8,7.62,1.37,1.89,1.0670051546267245
671,0.56,0.43,0.79,6.86,1.37,2.29,1.0595281968876527
672,0.56,0.44,0.79,6.16,1.34,1.92,1.0636258740741502
673,0.57,0.43,0.79,5.76,1.07,1.71,1.0648474069086145
674,0.57,0.43,0.79,4.76,1.46,1.07,1.0648474069086145
675,0.57,0.43,0.79,4.15,1.59,0.46,1.0648474069086145
676,0.58,0.42,0.79,3.41,2.01,-0.15,1.0662551289442879
677,0.58,0.42,0.79,2.65,2.1,-0.82,1.0662551289442879
678,0.58,0.42,0.79,1.68,2.41,-1.49,1.0662551289442879
679,0.57,0.42,0.8,1.55,2.56,-2.13,1.0683164325236227
680,0.57,0.42,0.79,1.68,2.41,-2.44,1.060848716830067
681,0.56,0.42,0.79,0.95,2.2,-2.8,1.0555093557141026
682,0.56,0.42,0.79,0.88,1.92,-3.14,1.0555093557141026
683,0.56,0.42,0.79,0.64,1.77,-3.63,1.0555093557141026
684,0.56,0.42,0.8,0.46,2.07,-3.23,1.063014581273465
685,0.56,0.42,0.81,0.7,1.8,-3.2,1.0705606008068858
686,0.56,0.42,0.8,0.82,1.43,-2.68,1.063014581273465
687,0.56,0.41,0.81,1.52,1.13,-2.56,1.0666770832824712
688,0.56,0.42,0.81,1.95,0.73,-2.62,1.0705606008068858
689,0.56,0.42,0.81,2.16,0.43,-2.71,1.0705606008068858
690,0.56,0.42,0.8,2.71,0.21,-2.38,1.063014581273465
691,0.56,0.42,0.8,3.6,-0.03,-2.29,1.063014581273465
692,0.55,0.42,0.81,3.87,-0.46,-1.83,1.065363787633126
693,0.55,0.43,0.8,3.57,-0.3,-1.16,1.0617909398747007
694,0.55,0.42,0.8,3.81,-0.34,-1.34,1.0577806956075537
695,0.55,0.42,0.8,4.05,-0.03,-1.37,1.0577806956075537
696,0.55,0.42,0.79,4.48,0.09,-0.98,1.05023806824929
697,0.55,0.43,0.8,4.42,-0.12,-0.79,1.0617909398747007
698,0.55,0.42,0.79,4.66,-0.06,-0.82,1.05023806824929
699,0.55,0.43,0.79,4.51,-0.09,-1.1,1.0542770034483349
700,0.56,0.42,0.79,4.39,-0.03,-1.07,1.0555093557141026
701,0.56,0.43,0.78,4.33,0.21,-1.43,1.0520931517693668
702,0.56,0.43,0.79,3.96,0.46,-1.71,1.0595281968876527
703,0.56,0.42,0.78,3.29,1.4,-1.71,1.0480458005259121
704,0.57,0.43,0.78,3.2,1.59,-2.01,1.0574497624000867
705,0.57,0.42,0.78,3.02,2.13,-2.26,1.0534229919647664
706,0.56,0.43,0.78,2.47,2.35,-2.77,1.0520931517693668
707,0.56,0.43,0.78,2.07,2.5,-2.59,1.0520931517693668
708,0.56,0.43,0.78,1.77,2.77,-2.84,1.0520931517693668
709,0.56,0.43,0.79,1.52,2.71,-2.84,1.0595281968876527
710,0.55,0.43,0.79,1.28,2.41,-2.93,1.0542770034483349
711,0.55,0.42,0.8,1.07,2.1,-3.08,1.0577806956075537
712,0.55,0.42,0.8,0.64,2.2,-2.93,1.0577806956075537
713,0.53,0.42,0.8,0.67,2.01,-3.05,1.0475208828467335
714,0.55,0.42,0.81,0.95,2.07,-3.05,1.065363787633126
715,0.55,0.42,0.8,0.91,1.8,-3.23,1.0577806956075537
716,0.55,0.42,0.81,1.16,1.98,-3.02,1.065363787633126
717,0.55,0.42,0.81,1.77,1.34,-3.23,1.065363787633126
718,0.55,0.41,0.81,2.04,1.28,-2.65,1.061461256947233
719,0.54,0.42,0.81,2.77,0.76,-2.96,1.0602358228243376
720,0.55,0.42,0.81,3.05,0.55,-3.08,1.065363787633126
721,0.55,0.42,0.81,3.51,0.3,-3.05,1.065363787633126
722,0.55,0.42,0.81,3.26,0.3,-2.8,1.065363787633126
723,0.55,0.42,0.8,3.54,0.12,-2.87,1.0577806956075537
724,0.55,0.42,0.8,3.84,0.34,-2.77,1.0577806956075537
725,0.56,0.42,0.8,4.33,0.73,-2.35,1.063014581273465
726,0.56,0.42,0.8,4.63,0.82,-2.65,1.063014581273465
727,0.56,0.42,0.8,5.3,1.04,-2.74,1.063014581273465
728,0.56,0.42,0.8,6.07,1.31,-2.71,1.063014581273465
729,0.56,0.43,0.8,5.95,1.16,-2.53,1.0670051546267245
730,0.55,0.43,0.8,5.73,1.34,-2.38,1.0617909398747007
731,0.56,0.43,0.79,5.27,2.23,-2.38,1.0595281968876527
732,0.56,0.44,0.79,4.94,2.16,-2.32,1.0636258740741502
733,0.56,0.44,0.79,4.27,2.56,-2.07,1.0636258740741502
734,0.56,0.44,0.78,3.75,2.59,-2.04,1.0562196741208716
735,0.55,0.44,0.79,3.45,3.02,-2.35,1.0583950113261116
736,0.56,0.44,0.79,2.47,3.2,-2.62,1.0636258740741502
737,0.55,0.44,0.8,2.29,3.51,-2.65,1.0658799181896619
738,0.56,0.44,0.8,1.65,3.57,-2.77,1.071074227119671
739,0.54,0.44,0.8,1.1,3.41,-2.59,1.0607544484940896
740,0.54,0.44,0.81,0.21,2.8,-2.41,1.0683164325236227
741,0.54,0.43,0.81,0.27,2.38,-2.41,1.0642368157510809
742,0.54,0.42,0.83,0.61,2.23,-2.53,1.075592859775482
743,0.54,0.41,0.82,1.31,1.46,-2.29,1.0640018796975876
744,0.54,0.42,0.82,1.89,1.4,-1.71,1.0678951259369995
745,0.54,0.41,0.82,2.41,0.95,-1.74,1.0640018796975876
746,0.54,0.41,0.82,2.9,1.1,-1.8,1.0640018796975876
747,0.54,0.41,0.81,3.72,0.79,-1.19,1.0563143471523995
748,0.54,0.41,0.82,4.51,0.37,-1.04,1.0640018796975876
749,0.55,0.41,0.81,4.63,0.24,-0.82,1.061461256947233
750,0.55,0.41,0.81,5.24,0.06,-0.82,1.061461256947233
751,0.55,0.41,0.8,5.37,0.21,-0.91,1.0538500842150178
752,0.55,0.42,0.81,5.58,0.06,-0.95,1.065363787633126
753,0.55,0.42,0.81,5.21,-0.09,-0.61,1.065363787633126
754,0.55,0.43,0.8,5.49,-0.12,-1.07,1.0617909398747007
755,0.55,0.43,0.8,5.06,0.03,-0.98,1.0617909398747007
756,0.55,0.43,0.8,4.57,0.03,-1.4,1.0617909398747007
757,0.55,0.43,0.8,4.15,0.09,-1.77,1.0617909398747007
758,0.55,0.44,0.8,3.72,-0.21,-1.49,1.0658799181896619
759,0.55,0.44,0.79,3.41,0.4,-1.98,1.0583950113261116
760,0.56,0.44,0.8,3.38,0.55,-2.01,1.071074227119671
761,0.55,0.44,0.8,3.38,0.82,-2.38,1.0658799181896619
762,0.55,0.44,0.79,2.93,1.13,-2.1,1.0583950113261116
763,0.55,0.45,0.79,2.53,1.71,-2.16,1.062591172558854
764,0.55,0.45,0.79,2.5,2.29,-1.8,1.062591172558854
765,0.54,0.45,0.79,2.26,2.29,-1.37,1.057449762400087
766,0.54,0.45,0.8,2.71,2.41,-0.4,1.0649413129370089
767,0.54,0.45,0.8,2.87,2.44,0.21,1.0649413129370089
768,0.54,0.45,0.8,3.26,2.93,1.04,1.0649413129370089
769,0.54,0.45,0.8,3.57,2.62,1.74,1.0649413129370089
770,0.54,0.45,0.8,3.87,2.93,2.04,1.0649413129370089
771,0.54,0.44,0.8,4.36,3.26,2.5,1.0607544484940896
772,0.54,0.45,0.8,4.33,3.08,2.87,1.0649413129370089
773,0.54,0.44,0.81,4.42,2.56,3.08,1.0683164325236227
774,0.54,0.45,0.81,4.09,2.26,3.17,1.0724737759031686
775,0.55,0.44,0.82,4.57,2.04,3.41,1.0809717850156866
776,0.54,0.43,0.82,4.79,1.49,3.17,1.0718675291284832
777,0.55,0.43,0.83,4.82,1.13,2.74,1.084573648951513
778,0.55,0.42,0.82,5.67,0.91,2.16,1.0729864864013898
779,0.54,0.42,0.82,5.46,-0.03,1.37,1.0678951259369995
780,0.54,0.42,0.83,5.61,-0.43,0.76,1.075592859775482
781,0.54,0.42,0.83,5.7,-1.34,-0.27,1.075592859775482
782,0.54,0.43,0.82,5.7,-1.71,-0.98,1.0718675291284832
783,0.54,0.43,0.82,5.27,-2.5,-1.19,1.0718675291284832
784,0.55,0.43,0.82,5.15,-2.47,-1.4,1.0769401097554125
785,0.55,0.44,0.81,4.6,-3.05,-1.55,1.0734057946554976
786,0.55,0.44,0.81,4.27,-2.99,-1.74,1.0734057946554976
787,0.55,0.44,0.81,3.81,-2.96,-1.65,1.0734057946554976
788,0.55,0.44,0.81,3.41,-2.74,-1.71,1.0734057946554976
789,0.55,0.44,0.81,2.96,-2.77,-1.95,1.0734057946554976
790,0.55,0.43,0.81,2.77,-2.35,-1.46,1.069345594277173
791,0.55,0.43,0.81,3.02,-2.07,-1.37,1.069345594277173
792,0.56,0.43,0.81,2.96,-2.01,-1.07,1.074523150053083
793,0.55,0.42,0.81,3.32,-1.77,-1.1,1.065363787633126
794,0.55,0.42,0.81,3.81,-1.8,-0.79,1.065363787633126
795,0.55,0.42,0.81,3.75,-1.34,-1.1,1.065363787633126
796,0.55,0.43,0.81,4.15,-1.55,-0.4,1.069345594277173
797,0.55,0.43,0.81,4.33,-1.16,-0.12,1.069345594277173
798,0.55,0.43,0.81,4.54,-1.1,0.0,1.069345594277173
799,0.55,0.43,0.8,4.79,-1.31,0.24,1.0617909398747007
800,0.55,0.43,0.81,4.79,-1.49,0.58,1.069345594277173
801,0.55,0.43,0.8,4.48,-1.68,0.61,1.0617909398747007
802,0.55,0.43,0.81,4.42,-1.71,0.34,1.069345594277173
803,0.55,0.43,0.81,4.39,-1.68,0.7,1.069345594277173
804,0.55,0.43,0.81,4.24,-1.95,0.61,1.069345594277173
805,0.56,0.42,0.8,4.39,-1.8,0.58,1.063014581273465
806,0.55,0.42,0.81,3.99,-1.71,0.61,1.065363787633126
807,0.55,0.43,0.8,4.15,-1.8,0.64,1.0617909398747007
808,0.55,0.43,0.8,3.9,-1.86,0.7,1.0617909398747007
809,0.55,0.43,0.8,3.63,-1.95,0.03,1.0617909398747007
810,0.55,0.43,0.8,3.48,-2.07,-0.12,1.0617909398747007
811,0.55,0.43,0.8,3.29,-2.38,-0.67,1.0617909398747007
812,0.55,0.44,0.8,2.71,-2.47,-1.01,1.0658799181896619
813,0.55,0.44,0.79,2.53,-2.59,-1.04,1.0583950113261116
814,0.56,0.44,0.79,2.07,-2.44,-1.31,1.0636258740741502
815,0.56,0.44,0.79,1.74,-2.56,-1.55,1.0636258740741502
816,0.56,0.44,0.79,1.55,-2.1,-1.55,1.0636258740741502
817,0.56,0.44,0.79,1.43,-1.86,-1.28,1.0636258740741502
818,0.56,0.44,0.78,1.25,-1.28,-1.07,1.0562196741208716
819,0.56,0.44,0.79,1.49,-0.98,-1.22,1.0636258740741502
820,0.56,0.44,0.79,1.19,-0.61,-1.49,1.0636258740741502
821,0.57,0.44,0.78,1.07,-0.43,-1.37,1.06155546251715
822,0.58,0.44,0.79,1.04,0.09,-1.22,1.074290463515338
823,0.56,0.45,0.78,0.43,0.34,-1.31,1.0604244433244643
824,0.55,0.45,0.78,-0.24,0.49,-1.34,1.0551777101512334
825,0.56,0.45,0.78,-0.27,1.16,-1.28,1.0604244433244643
826,0.56,0.46,0.78,-1.31,1.68,-1.34,1.0647065323364933
827,0.56,0.46,0.79,-2.26,1.83,-1.8,1.0720541031123383
828,0.55,0.45,0.79,-2.32,2.38,-1.52,1.062591172558854
829,0.55,0.45,0.8,-2.5,2.35,-1.07,1.070046727951635
830,0.55,0.45,0.79,-2.53,2.35,-1.28,1.062591172558854
831,0.55,0.45,0.8,-2.26,2.32,-0.43,1.070046727951635
832,0.56,0.43,0.81,-1.8,2.5,-0.24,1.074523150053083
833,0.55,0.43,0.82,-0.88,2.71,0.58,1.0769401097554125
834,0.55,0.43,0.81,0.09,2.56,1.34,1.069345594277173
835,0.55,0.41,0.82,1.68,2.71,1.52,1.0691117808723276
836,0.54,0.41,0.82,3.11,2.53,2.71,1.0640018796975876
837,0.54,0.41,0.82,4.15,2.2,3.38,1.0640018796975876
838,0.54,0.41,0.82,5.79,1.71,3.87,1.0640018796975876
839,0.55,0.41,0.81,7.01,1.59,4.21,1.061461256947233
840,0.54,0.41,0.81,7.9,1.28,4.45,1.0563143471523995
841,0.54,0.41,0.81,8.57,1.1,5.24,1.0563143471523995
842,0.55,0.42,0.81,8.72,1.31,5.12,1.065363787633126
843,0.55,0.42,0.8,8.93,1.19,4.97,1.0577806956075537
844,0.55,0.42,0.8,8.11,1.01,4.7,1.0577806956075537
845,0.55,0.43,0.8,8.11,0.82,4.36,1.0617909398747007
846,0.55,0.43,0.79,7.38,0.73,3.78,1.0542770034483349
847,0.55,0.43,0.8,5.88,0.55,3.14,1.0617909398747007
848,0.56,0.43,0.8,5.12,0.3,2.47,1.0670051546267245
849,0.56,0.44,0.79,3.99,0.27,2.07,1.0636258740741502
850,0.56,0.43,0.79,2.38,0.3,0.98,1.0595281968876527
851,0.56,0.42,0.78,1.55,0.49,0.73,1.0480458005259121
852,0.57,0.42,0.79,0.37,0.7,-0.06,1.060848716830067
853,0.56,0.42,0.79,-0.4,1.01,-1.25,1.0555093557141026
854,0.56,0.42,0.78,-0.55,1.37,-1.31,1.0480458005259121
855,0.56,0.41,0.8,-0.73,1.49,-1.49,1.059103394386025
856,0.56,0.41,0.79,-0.95,1.68,-2.04,1.051570254429061
857,0.56,0.41,0.8,-0.21,1.95,-2.04,1.059103394386025
858,0.56,0.41,0.8,0.15,2.1,-1.86,1.059103394386025
859,0.56,0.41,0.8,0.95,2.13,-1.59,1.059103394386025
860,0.55,0.42,0.8,1.65,2.13,-1.65,1.0577806956075537
861,0.55,0.41,0.81,2.8,2.04,-1.13,1.061461256947233
862,0.55,0.42,0.81,3.6,1.98,-0.55,1.065363787633126
863,0.54,0.42,0.81,4.82,1.86,-0.12,1.0602358228243376
864,0.54,0.42,0.81,5.37,1.59,0.52,1.0602358228243376
865,0.54,0.42,0.81,6.13,1.43,1.1,1.0602358228243376
866,0.54,0.42,0.81,6.71,0.98,1.74,1.0602358228243376
867,0.54,0.42,0.81,7.44,0.49,2.35,1.0602358228243376
868,0.54,0.42,0.8,7.93,0.3,3.02,1.0526157893552615
869,0.55,0.42,0.8,8.29,-0.12,2.44,1.0577806956075537
870,0.55,0.43,0.8,8.17,-0.15,2.53,1.0617909398747007
871,0.55,0.44,0.79,7.68,0.0,2.16,1.0583950113261116
872,0.56,0.44,0.79,6.92,-0.12,1.71,1.0636258740741502
873,0.55,0.44,0.79,6.43,-0.27,1.13,1.0583950113261116
874,0.55,0.44,0.79,5.58,-0.21,1.1,1.0583950113261116
875,0.56,0.45,0.79,4.3,0.0,0.4,1.0678014796768172
876,0.56,0.44,0.78,3.63,0.21,0.03,1.0562196741208716
877,0.56,0.43,0.79,3.11,0.24,-0.12,1.0595281968876527
878,0.56,0.43,0.79,2.65,0.43,-0.43,1.0595281968876527
879,0.55,0.43,0.79,2.5,0.64,-0.76,1.0542770034483349
880,0.56,0.42,0.8,2.59,1.04,-0.91,1.063014581273465
881,0.56,0.42,0.81,2.77,0.98,-0.82,1.0705606008068858
882,0.56,0.42,0.8,3.35,1.22,-1.28,1.063014581273465
883,0.56,0.42,0.8,3.63,1.01,-0.95,1.063014581273465
884,0.56,0.41,0.8,3.99,1.28,-0.95,1.059103394386025
885,0.56,0.41,0.8,4.27,1.19,-0.52,1.059103394386025
886,0.56,0.41,0.81,5.12,1.25,-0.7,1.0666770832824712
887,0.56,0.42,0.8,5.27,1.49,-0.85,1.063014581273465
888,0.56,0.42,0.8,5.3,1.19,-0.4,1.063014581273465
889,0.56,0.43,0.8,5.24,1.13,-0.49,1.0670051546267245
890,0.56,0.43,0.8,4.66,1.04,-1.19,1.0670051546267245
891,0.56,0.43,0.8,4.24,0.82,-1.31,1.0670051546267245
892,0.55,0.43,0.8,3.29,0.43,-1.65,1.0617909398747007
893,0.55,0.44,0.8,2.1,0.49,-1.92,1.0658799181896619
894,0.55,0.43,0.79,1.22,0.09,-1.95,1.0542770034483349
895,0.56,0.44,0.8,0.46,-0.43,-2.1,1.071074227119671
896,0.56,0.43,0.8,-0.27,-1.04,-2.5,1.0670051546267245
897,0.56,0.43,0.8,-0.52,-1.43,-2.5,1.0670051546267245
898,0.56,0.43,0.8,-0.76,-1.43,-2.71,1.0670051546267245
899,0.56,0.43,0.8,-1.22,-1.65,-3.26,1.0670051546267245
900,0.56,0.42,0.8,-0.7,-1.52,-2.99,1.063014581273465
901,0.56,0.43,0.8,-0.98,-1.49,-2.35,1.0670051546267245
902,0.56,0.43,0.8,-0.76,-1.65,-2.04,1.0670051546267245
903,0.56,0.42,0.8,-0.09,-1.34,-1.74,1.063014581273465
904,0.56,0.41,0.8,1.13,-0.73,-1.28,1.059103394386025
905,0.56,0.42,0.8,1.98,-0.3,-0.82,1.063014581273465
906,0.56,0.42,0.8,2.96,0.24,-0.52,1.063014581273465
907,0.56,0.42,0.8,4.05,0.61,-0.27,1.063014581273465
908,0.56,0.42,0.81,5.0,1.49,-0.09,1.0705606008068858
909,0.56,0.42,0.8,5.85,2.07,0.12,1.063014581273465
910,0.56,0.43,0.81,6.55,2.77,0.18,1.074523150053083
911,0.55,0.43,0.81,6.59,2.59,0.43,1.069345594277173
912,0.56,0.44,0.81,6.95,2.68,0.37,1.078563859954523
913,0.55,0.44,0.8,6.86,2.71,0.21,1.0658799181896619
914,0.56,0.44,0.81,6.8,2.68,0.46,1.078563859954523
915,0.55,0.45,0.81,6.31,2.23,-0.21,1.0775435026020992
916,0.55,0.46,0.81,5.3,2.04,-0.4,1.0817578287213827
917,0.55,0.46,0.8,3.87,1.55,-0.76,1.074290463515338
918,0.55,0.47,0.8,2.8,1.01,-0.73,1.0786102168995064
919,0.55,0.46,0.8,1.16,0.7,-1.16,1.074290463515338
920,0.55,0.46,0.81,-0.12,0.3,-1.04,1.0817578287213827
921,0.53,0.45,0.8,-0.73,-0.09,-1.31,1.0599056561788884
922,0.55,0.45,0.8,-1.43,-0.3,-0.98,1.070046727951635
923,0.55,0.44,0.81,-1.77,-0.27,-1.49,1.0734057946554976
924,0.55,0.44,0.81,-1.68,-0.52,-1.4,1.0734057946554976
925,0.55,0.43,0.8,-1.55,-0.73,-1.34,1.0617909398747007
926,0.55,0.43,0.81,-0.7,-0.55,-1.31,1.069345594277173
927,0.56,0.43,0.81,-0.21,-0.37,-1.43,1.074523150053083
928,0.55,0.43,0.8,0.27,-0.37,-0.82,1.0617909398747007
929,0.55,0.43,0.81,0.98,0.18,-0.67,1.069345594277173
930,0.55,0.43,0.8,1.68,0.46,-0.34,1.0617909398747007
931,0.55,0.42,0.8,2.47,0.88,0.0,1.0577806956075537
932,0.55,0.42,0.8,3.05,1.19,0.34,1.0577806956075537
933,0.55,0.43,0.8,3.81,1.55,0.91,1.0617909398747007
934,0.55,0.42,0.8,4.39,1.68,1.31,1.0577806956075537
935,0.55,0.42,0.8,4.97,1.89,1.55,1.0577806956075537
936,0.55,0.42,0.8,5.37,1.83,1.55,1.0577806956075537
937,0.55,0.42,0.8,6.04,1.65,1.62,1.0577806956075537
938,0.55,0.42,0.8,6.49,1.34,1.65,1.0577806956075537
939,0.55,0.42,0.8,6.34,1.59,1.68,1.0577806956075537
940,0.55,0.43,0.8,6.01,1.28,1.04,1.0617909398747007
941,0.55,0.44,0.8,5.52,0.98,0.95,1.0658799181896619
942,0.56,0.44,0.79,5.0,1.16,0.34,1.0636258740741502
943,0.55,0.44,0.79,3.6,0.61,-0.27,1.0583950113261116
944,0.55,0.44,0.79,2.53,0.03,-0.64,1.0583950113261116
945,0.55,0.44,0.79,1.34,-0.46,-1.46,1.0583950113261116
946,0.55,0.44,0.79,0.27,-0.95,-1.86,1.0583950113261116
947,0.55,0.44,0.79,-0.49,-1.25,-2.32,1.0583950113261116
948,0.55,0.43,0.79,-1.22,-1.28,-2.5,1.0542770034483349
949,0.55,0.43,0.8,-1.34,-1.28,-2.71,1.0617909398747007
950,0.55,0.42,0.79,-1.19,-1.19,-2.59,1.05023806824929
951,0.55,0.42,0.79,-1.04,-0.7,-2.44,1.05023806824929
952,0.55,0.42,0.8,-0.24,-0.82,-2.07,1.0577806956075537
953,0.55,0.42,0.81,0.18,-0.43,-1.89,1.065363787633126
954,0.55,0.42,0.81,0.85,-0.12,-1.19,1.065363787633126
955,0.55,0.41,0.8,1.59,0.09,-1.13,1.0538500842150178
956,0.55,0.42,0.8,2.59,0.37,-0.46,1.0577806956075537
957,0.54,0.42,0.8,3.26,0.0,-0.34,1.0526157893552615
958,0.54,0.42,0.81,3.78,-0.06,-0.09,1.0602358228243376
959,0.55,0.42,0.81,4.94,-0.21,0.49,1.065363787633126
960,0.55,0.42,0.81,5.24,0.34,0.34,1.065363787633126
961,0.55,0.43,0.81,5.52,0.18,0.73,1.069345594277173
962,0.55,0.43,0.8,5.73,0.21,0.82,1.0617909398747007
963,0.54,0.43,0.8,6.52,-0.06,1.04,1.0566456359631644
964,0.54,0.43,0.8,6.19,-0.12,0.91,1.0566456359631644
965,0.55,0.43,0.8,6.13,-0.61,1.89,1.0617909398747007
966,0.55,0.44,0.8,5.88,-0.58,2.1,1.0658799181896619
967,0.55,0.44,0.8,5.49,-1.31,1.89,1.0658799181896619
968,0.54,0.44,0.8,5.15,-1.4,2.23,1.0607544484940896
969,0.55,0.44,0.79,4.45,-1.65,2.2,1.0583950113261116
970,0.55,0.44,0.8,3.29,-2.16,2.68,1.0658799181896619
971,0.55,0.44,0.8,2.74,-2.5,2.26,1.0658799181896619
972,0.55,0.43,0.79,2.16,-2.62,2.01,1.0542770034483349
973,0.56,0.43,0.79,1.89,-3.23,1.37,1.0595281968876527
974,0.56,0.43,0.79,1.46,-3.14,0.91,1.0595281968876527
975,0.56,0.43,0.79,0.98,-3.54,0.12,1.0595281968876527
976,0.56,0.43,0.79,0.73,-3.48,-0.73,1.0595281968876527
977,0.55,0.43,0.8,0.4,-3.72,-0.7,1.0617909398747007
978,0.56,0.44,0.8,-0.12,-3.96,-1.16,1.071074227119671
979,0.56,0.44,0.79,-0.88,-3.32,-1.74,1.0636258740741502
980,0.56,0.44,0.8,-0.98,-3.6,-1.8,1.071074227119671
981,0.57,0.42,0.79,-0.4,-2.68,-2.47,1.060848716830067
982,0.57,0.42,0.79,-0.09,-2.13,-2.41,1.060848716830067
983,0.57,0.43,0.79,0.37,-1.31,-2.65,1.0648474069086145
984,0.57,0.42,0.8,1.13,-0.7,-2.59,1.0683164325236227
985,0.57,0.43,0.8,2.26,0.06,-2.5,1.0722872749408154
986,0.56,0.43,0.8,3.08,0.34,-1.92,1.0670051546267245
987,0.56,0.44,0.79,3.72,0.82,-1.28,1.0636258740741502
988,0.55,0.44,0.79,4.48,0.88,-0.95,1.0583950113261116
989,0.56,0.44,0.8,4.73,0.7,-0.82,1.071074227119671
990,0.55,0.44,0.8,5.85,1.19,-0.3,1.0658799181896619
991,0.55,0.45,0.81,5.09,1.16,0.18,1.0775435026020992
992,0.55,0.45,0.8,4.7,1.22,0.34,1.070046727951635
993,0.55,0.45,0.8,4.3,0.73,0.55,1.070046727951635
994,0.55,0.45,0.79,3.78,-0.06,0.46,1.062591172558854
995,0.55,0.45,0.79,2.84,-0.43,0.52,1.062591172558854
996,0.55,0.45,0.8,1.89,-1.04,0.46,1.070046727951635
997,0.56,0.45,0.79,0.85,-1.83,0.15,1.0678014796768172
998,0.56,0.44,0.79,0.55,-1.98,-0.37,1.0636258740741502
999,0.56,0.44,0.79,0.15,-2.07,-0.55,1.0636258740741502
1000,0.56,0.44,0.79,-0.55,-1.92,-0.55,1.0636258740741502
1001,0.57,0.43,0.78,-0.64,-1.71,-0.88,1.0574497624000867
1002,0.57,0.42,0.79,-0.61,-1.37,-0.79,1.060848716830067
1003,0.57,0.42,0.79,-0.49,-0.88,-0.79,1.060848716830067
1004,0.57,0.42,0.79,-0.09,-0.55,-0.91,1.060848716830067
1005,0.57,0.42,0.79,0.21,0.0,-1.52,1.060848716830067
1006,0.56,0.41,0.79,0.43,0.15,-1.4,1.051570254429061
1007,0.58,0.41,0.8,0.88,0.49,-1.65,1.0698130677833395
1008,0.55,0.42,0.8,1.31,1.04,-1.62,1.0577806956075537
1009,0.56,0.42,0.8,1.59,0.67,-1.8,1.063014581273465
1010,0.56,0.42,0.8,2.1,1.25,-1.34,1.063014581273465
1011,0.55,0.42,0.8,2.2,1.01,-1.74,1.0577806956075537
1012,0.56,0.42,0.8,2.93,1.19,-1.25,1.063014581273465
1013,0.56,0.43,0.81,3.23,1.07,-1.4,1.074523150053083
1014,0.56,0.44,0.8,3.23,0.91,-1.89,1.071074227119671
1015,0.56,0.44,0.8,3.02,1.22,-1.74,1.071074227119671
1016,0.55,0.44,0.81,2.59,1.25,-2.23,1.0734057946554976
1017,0.56,0.44,0.8,2.32,1.34,-2.01,1.071074227119671
1018,0.55,0.45,0.8,2.13,1.31,-1.92,1.070046727951635
1019,0.56,0.45,0.8,2.04,1.4,-1.68,1.0752209075348191
1020,0.55,0.45,0.8,1.86,1.37,-1.74,1.070046727951635
1021,0.55,0.45,0.8,1.71,1.22,-1.34,1.070046727951635
1022,0.55,0.45,0.8,1.59,0.43,-1.37,1.070046727951635
1023,0.56,0.45,0.79,1.55,0.4,-1.34,1.0678014796768172
1024,0.55,0.45,0.8,0.88,0.58,-1.28,1.070046727951635
1025,0.56,0.45,0.8,0.88,0.46,-1.01,1.0752209075348191
1026,0.55,0.44,0.8,0.64,0.03,-0.98,1.0658799181896619
1027,0.55,0.43,0.8,1.04,-0.43,-0.98,1.0617909398747007
1028,0.56,0.43,0.8,0.85,-0.55,-0.64,1.0670051546267245
1029,0.55,0.43,0.81,1.43,-0.82,-0.3,1.069345594277173
1030,0.55,0.42,0.81,1.77,-0.91,0.09,1.065363787633126
1031,0.55,0.42,0.8,2.26,-1.22,0.21,1.0577806956075537
1032,0.55,0.42,0.81,2.44,-1.86,0.46,1.065363787633126
1033,0.55,0.41,0.8,3.02,-2.23,0.73,1.0538500842150178
1034,0.55,0.41,0.81,3.72,-2.44,0.79,1.061461256947233
1035,0.55,0.41,0.8,3.84,-2.5,1.04,1.0538500842150178
1036,0.56,0.4,0.8,4.57,-2.38,0.91,1.0552724766618335
1037,0.56,0.4,0.79,5.34,-2.1,1.19,1.0477117924314874
1038,0.55,0.41,0.79,5.64,-2.16,0.7,1.046279121458514
1039,0.56,0.41,0.79,5.64,-2.35,0.58,1.051570254429061
1040,0.56,0.41,0.79,5.43,-2.38,0.15,1.051570254429061
1041,0.56,0.42,0.79,5.27,-2.53,-0.12,1.0555093557141026
1042,0.56,0.42,0.78,4.21,-2.2,-0.37,1.0480458005259121
1043,0.56,0.42,0.78,3.9,-2.5,-0.58,1.0480458005259121
1044,0.56,0.42,0.79,3.54,-2.53,-1.28,1.0555093557141026
1045,0.56,0.42,0.79,2.47,-2.47,-1.98,1.0555093557141026
1046,0.56,0.43,0.78,1.71,-2.68,-2.53,1.0520931517693668
1047,0.56,0.43,0.78,0.61,-2.23,-3.6,1.0520931517693668
1048,0.56,0.43,0.78,-0.3,-2.04,-3.72,1.0520931517693668
1049,0.56,0.43,0.78,-1.34,-1.74,-4.24,1.0520931517693668
1050,0.56,0.43,0.78,-1.95,-1.34,-5.34,1.0520931517693668
1051,0.56,0.43,0.78,-2.29,-0.95,-5.82,1.0520931517693668
1052,0.57,0.43,0.78,-2.38,-0.24,-6.22,1.0574497624000867
1053,0.56,0.44,0.78,-3.05,0.37,-6.28,1.0562196741208716
1054,0.56,0.44,0.79,-3.08,1.04,-6.31,1.0636258740741502
1055,0.56,0.44,0.78,-2.8,1.52,-6.34,1.0562196741208716
1056,0.56,0.44,0.8,-2.59,2.32,-6.01,1.071074227119671
1057,0.55,0.44,0.8,-2.16,2.47,-5.64,1.0658799181896619
1058,0.54,0.44,0.8,-1.83,2.8,-5.18,1.0607544484940896
1059,0.54,0.44,0.81,-0.88,2.23,-4.66,1.0683164325236227
1060,0.54,0.43,0.81,0.03,2.29,-4.05,1.0642368157510809
1061,0.54,0.43,0.81,1.13,1.68,-3.54,1.0642368157510809
1062,0.54,0.44,0.81,2.13,0.91,-3.02,1.0683164325236227
1063,0.55,0.43,0.81,2.99,0.43,-2.93,1.069345594277173
1064,0.54,0.43,0.81,4.18,0.34,-2.23,1.0642368157510809
1065,0.54,0.43,0.81,5.09,-0.67,-1.8,1.0642368157510809
1066,0.55,0.43,0.8,5.82,-0.61,-1.62,1.0617909398747007
1067,0.55,0.43,0.8,6.22,-0.73,-1.22,1.0617909398747007
1068,0.55,0.43,0.8,6.68,-1.1,-1.19,1.0617909398747007
1069,0.56,0.44,0.79,7.01,-0.73,-1.37,1.0636258740741502
1070,0.56,0.44,0.79,7.04,-0.85,-1.28,1.0636258740741502
1071,0.57,0.44,0.79,6.83,-0.7,-1.4,1.0689246933250256
1072,0.57,0.45,0.79,6.04,-0.43,-1.98,1.0730796801729123
1073,0.57,0.45,0.77,4.97,0.03,-2.13,1.0584422516131902
1074,0.57,0.45,0.78,4.3,0.15,-2.84,1.0657391800998968
1075,0.57,0.45,0.78,2.93,0.49,-3.32,1.0657391800998968
1076,0.57,0.45,0.78,2.01,0.88,-3.57,1.0657391800998968
1077,0.57,0.45,0.77,0.52,1.1,-4.3,1.0584422516131902
1078,0.57,0.46,0.78,-0.3,2.04,-4.6,1.07
1079,0.57,0.46,0.78,-1.49,2.35,-4.79,1.07
1080,0.55,0.45,0.78,-2.38,2.23,-4.6,1.0551777101512334
1081,0.56,0.45,0.79,-2.74,2.59,-5.27,1.0678014796768172
1082,0.56,0.44,0.8,-3.54,2.77,-4.85,1.071074227119671
1083,0.55,0.45,0.79,-3.26,2.99,-5.0,1.062591172558854
1084,0.55,0.44,0.8,-2.8,2.8,-4.51,1.0658799181896619
1085,0.55,0.44,0.81,-2.41,2.87,-4.09,1.0734057946554976
1086,0.55,0.43,0.81,-1.89,2.23,-3.57,1.069345594277173
1087,0.55,0.43,0.81,-0.58,2.26,-3.14,1.069345594277173
1088,0.53,0.43,0.81,0.34,2.26,-2.41,1.059197809665409
1089,0.55,0.43,0.81,1.34,2.13,-2.2,1.069345594277173
1090,0.55,0.42,0.82,2.53,1.65,-1.83,1.0729864864013898
1091,0.55,0.42,0.81,3.72,1.19,-1.43,1.065363787633126
1092,0.53,0.42,0.81,4.3,1.16,-0.79,1.0551777101512334
1093,0.55,0.43,0.81,5.24,1.16,-0.52,1.069345594277173
1094,0.55,0.43,0.81,5.88,0.76,-0.7,1.069345594277173
1095,0.55,0.43,0.81,5.91,0.58,-0.27,1.069345594277173
1096,0.56,0.43,0.8,6.68,0.76,-0.27,1.0670051546267245
1097,0.56,0.43,0.8,6.52,0.73,-0.61,1.0670051546267245
1098,0.56,0.44,0.79,5.82,0.55,-0.73,1.0636258740741502
1099,0.56,0.44,0.8,5.49,0.61,-1.25,1.071074227119671
1100,0.56,0.43,0.79,4.54,0.03,-1.74,1.0595281968876527
1101,0.56,0.43,0.79,4.12,-0.24,-1.92,1.0595281968876527
1102,0.58,0.43,0.79,3.41,-0.27,-2.8,1.070233619356073
1103,0.57,0.43,0.79,2.23,-0.49,-3.2,1.0648474069086145
1104,0.57,0.43,0.78,1.95,-0.18,-4.33,1.0574497624000867
1105,0.56,0.42,0.78,1.74,-0.21,-3.99,1.0480458005259121
1106,0.56,0.37,0.76,3.38,-6.28,-1.71,1.0139526616169021
1107,0.63,0.41,0.76,3.84,5.64,-4.88,1.0689246933250256
1108,0.52,0.43,0.78,0.34,-0.09,-5.37,1.0313583276436953
1109,0.59,0.42,0.78,1.43,2.47,-4.79,1.064377752492037
1110,0.58,0.43,0.78,1.34,3.48,-5.21,1.0628734637763801
1111,0.58,0.43,0.79,1.71,4.42,-4.88,1.070233619356073
1112,0.56,0.43,0.79,1.77,5.0,-4.54,1.0595281968876527
1113,0.55,0.43,0.8,2.07,5.43,-4.12,1.0617909398747007
1114,0.55,0.44,0.8,2.26,5.76,-3.51,1.0658799181896619
1115,0.54,0.45,0.8,2.2,5.3,-2.96,1.0649413129370089
1116,0.54,0.45,0.8,2.65,5.12,-2.32,1.0649413129370089
1117,0.52,0.44,0.81,2.53,4.33,-1.92,1.058347768930421
1118,0.53,0.44,0.82,3.08,3.35,-1.46,1.0709341716464182
1119,0.53,0.43,0.83,3.51,2.2,-1.46,1.074569681314339
1120,0.53,0.43,0.81,3.9,1.1,-1.4,1.059197809665409
1121,0.53,0.43,0.82,4.39,-0.12,-1.34,1.0668645649753299
1122,0.54,0.43,0.82,4.57,-0.91,-1.37,1.0718675291284832
1123,0.54,0.43,0.81,4.7,-1.52,-1.46,1.0642368157510809
1124,0.54,0.43,0.81,4.45,-2.07,-1.74,1.0642368157510809
1125,0.55,0.43,0.8,4.45,-2.32,-1.83,1.0617909398747007
1126,0.55,0.43,0.8,4.24,-2.38,-2.16,1.0617909398747007
1127,0.56,0.43,0.78,4.21,-2.44,-2.53,1.0520931517693668
1128,0.56,0.43,0.79,3.84,-2.04,-2.71,1.0595281968876527
1129,0.56,0.44,0.79,3.9,-1.83,-2.9,1.0636258740741502
1130,0.56,0.44,0.79,3.75,-0.85,-3.35,1.0636258740741502
1131,0.56,0.45,0.78,3.26,-0.09,-3.78,1.0604244433244643
1132,0.56,0.45,0.79,2.5,0.61,-3.93,1.0678014796768172
1133,0.56,0.46,0.79,1.8,1.22,-4.02,1.0720541031123383
1134,0.56,0.46,0.79,1.52,1.65,-3.81,1.0720541031123383
1135,0.56,0.46,0.79,1.16,2.29,-3.75,1.0720541031123383
1136,0.55,0.45,0.79,0.49,2.5,-3.75,1.062591172558854
1137,0.55,0.46,0.79,0.64,3.05,-3.75,1.0668645649753299
1138,0.56,0.46,0.8,0.49,3.05,-3.51,1.0794443014810908
1139,0.55,0.46,0.79,0.52,2.96,-3.48,1.0668645649753299
1140,0.55,0.46,0.8,0.34,3.05,-3.57,1.074290463515338
1141,0.55,0.45,0.81,0.12,3.11,-3.08,1.0775435026020992
1142,0.54,0.46,0.8,0.27,2.99,-2.53,1.0692053123698928
1143,0.54,0.46,0.8,-0.15,2.68,-2.56,1.0692053123698928
1144,0.54,0.45,0.81,0.15,2.5,-2.07,1.0724737759031686
1145,0.54,0.45,0.81,0.18,2.04,-2.01,1.0724737759031686
1146,0.54,0.45,0.81,0.27,1.83,-1.71,1.0724737759031686
1147,0.54,0.45,0.81,0.82,1.92,-1.22,1.0724737759031686
1148,0.55,0.44,0.81,1.22,1.55,-1.13,1.0734057946554976
1149,0.54,0.44,0.82,1.92,1.43,-0.67,1.0759182125050213
1150,0.54,0.45,0.81,2.16,1.37,-0.43,1.0724737759031686
1151,0.55,0.44,0.81,2.23,1.31,-0.58,1.0734057946554976
1152,0.55,0.44,0.81,2.65,1.22,-0.64,1.0734057946554976
1153,0.54,0.44,0.82,2.8,0.79,-0.24,1.0759182125050213
1154,0.55,0.44,0.81,3.11,0.61,-0.43,1.0734057946554976
1155,0.55,0.44,0.82,3.41,0.15,0.18,1.0809717850156866
1156,0.54,0.44,0.82,3.17,0.12,-0.24,1.0759182125050213
1157,0.54,0.44,0.82,3.08,-0.12,0.0,1.0759182125050213
1158,0.55,0.44,0.81,3.32,-0.43,0.09,1.0734057946554976
1159,0.55,0.44,0.81,3.17,-0.98,0.21,1.0734057946554976
1160,0.55,0.44,0.81,3.23,-0.95,-0.06,1.0734057946554976
1161,0.55,0.44,0.8,3.35,-1.25,0.12,1.0658799181896619
1162,0.55,0.44,0.8,2.59,-1.01,-0.12,1.0658799181896619
1163,0.55,0.44,0.8,2.32,-0.79,-0.09,1.0658799181896619
1164,0.55,0.44,0.8,1.8,-0.67,-0.24,1.0658799181896619
1165,0.55,0.44,0.79,1.83,-0.43,-0.52,1.0583950113261116
1166,0.55,0.44,0.79,1.37,-0.03,-0.4,1.0583950113261116
1167,0.55,0.44,0.79,1.13,-0.09,-0.61,1.0583950113261116
1168,0.55,0.45,0.8,0.64,0.03,-0.73,1.070046727951635
1169,0.55,0.45,0.79,0.46,0.55,-0.64,1.062591172558854
1170,0.55,0.45,0.8,0.18,0.67,-0.79,1.070046727951635
1171,0.55,0.45,0.8,0.06,0.7,-0.82,1.070046727951635
1172,0.55,0.45,0.8,-0.24,0.7,-0.61,1.070046727951635
1173,0.55,0.44,0.8,-0.15,0.61,-0.61,1.0658799181896619
1174,0.55,0.44,0.8,-0.37,0.73,-0.52,1.0658799181896619
1175,0.55,0.43,0.8,-0.27,0.58,-0.55,1.0617909398747007
1176,0.55,0.43,0.81,0.03,0.7,-0.37,1.069345594277173
1177,0.55,0.43,0.81,0.4,0.43,-1.01,1.069345594277173
1178,0.55,0.43,0.8,0.52,0.46,-0.67,1.0617909398747007
1179,0.54,0.44,0.8,0.67,0.58,-0.64,1.0607544484940896
1180,0.54,0.43,0.81,0.76,0.4,-0.58,1.0642368157510809
1181,0.54,0.43,0.81,0.95,0.64,-0.43,1.0642368157510809
1182,0.54,0.43,0.81,0.95,0.55,-0.15,1.0642368157510809
1183,0.54,0.42,0.82,1.13,0.06,-0.21,1.0678951259369995
1184,0.54,0.43,0.82,1.74,-0.3,0.09,1.0718675291284832
1185,0.54,0.43,0.82,2.04,-0.88,0.15,1.0718675291284832
1186,0.54,0.43,0.82,2.2,-1.04,0.03,1.0718675291284832
1187,0.54,0.43,0.82,2.1,-1.62,0.18,1.0718675291284832
1188,0.54,0.43,0.81,1.59,-2.47,0.15,1.0642368157510809
1189,0.54,0.43,0.81,1.65,-2.74,0.09,1.0642368157510809
1190,0.54,0.43,0.81,0.85,-3.54,-0.52,1.0642368157510809
1191,0.54,0.43,0.81,0.67,-3.75,-0.76,1.0642368157510809
1192,0.55,0.43,0.81,0.49,-3.93,-1.01,1.069345594277173
1193,0.55,0.43,0.79,0.06,-3.9,-1.22,1.0542770034483349
1194,0.55,0.43,0.79,-0.24,-4.02,-1.43,1.0542770034483349
1195,0.55,0.43,0.79,-0.46,-3.26,-1.62,1.0542770034483349
1196,0.56,0.43,0.79,-0.49,-3.38,-2.2,1.0595281968876527
1197,0.56,0.43,0.78,-0.61,-2.87,-2.04,1.0520931517693668
1198,0.55,0.42,0.78,-0.27,-2.23,-2.26,1.04273678366115
1199,0.55,0.42,0.78,-0.18,-1.52,-2.5,1.04273678366115
1200,0.56,0.42,0.78,0.03,-0.82,-2.23,1.0480458005259121
1201,0.57,0.42,0.78,0.58,-0.18,-2.2,1.0534229919647664
1202,0.57,0.42,0.77,0.49,0.64,-2.41,1.0460401521930216
1203,0.57,0.42,0.78,0.85,1.74,-2.16,1.0534229919647664
1204,0.57,0.42,0.77,1.31,2.44,-1.8,1.0460401521930216
1205,0.57,0.43,0.78,1.65,2.99,-1.83,1.0574497624000867
1206,0.56,0.43,0.78,1.68,3.38,-1.62,1.0520931517693668
1207,0.55,0.44,0.79,1.59,3.29,-1.19,1.0583950113261116
1208,0.54,0.44,0.79,1.16,2.9,-1.49,1.0532331175955303
1209,0.54,0.44,0.79,0.95,2.23,-1.34,1.0532331175955303
1210,0.54,0.44,0.8,0.55,1.8,-1.34,1.0607544484940896
1211,0.54,0.44,0.8,0.0,1.28,-1.4,1.0607544484940896
1212,0.54,0.44,0.8,-0.64,0.88,-1.59,1.0607544484940896
1213,0.54,0.43,0.79,-0.4,0.4,-1.68,1.0490948479522717
1214,0.54,0.43,0.81,-0.4,0.03,-1.83,1.0642368157510809
1215,0.54,0.43,0.81,-0.52,-0.91,-1.86,1.0642368157510809
1216,0.54,0.42,0.81,-0.15,-1.25,-1.89,1.0602358228243376
1217,0.54,0.42,0.81,-0.34,-1.31,-2.04,1.0602358228243376
1218,0.55,0.41,0.81,-0.06,-1.74,-1.98,1.061461256947233
1219,0.55,0.41,0.8,0.24,-1.25,-2.07,1.0538500842150178
1220,0.55,0.41,0.8,0.37,-0.79,-1.83,1.0538500842150178
1221,0.55,0.41,0.79,0.58,-0.7,-1.77,1.046279121458514
1222,0.55,0.41,0.79,1.22,-0.21,-1.8,1.046279121458514
1223,0.55,0.4,0.79,1.77,-0.03,-1.95,1.042401074443038
1224,0.55,0.41,0.79,2.38,1.04,-2.1,1.046279121458514
1225,0.56,0.41,0.79,2.87,1.49,-2.2,1.051570254429061
1226,0.55,0.41,0.8,3.2,1.71,-2.16,1.0538500842150178
1227,0.55,0.41,0.79,3.38,2.01,-2.5,1.046279121458514
1228,0.55,0.42,0.79,3.63,2.01,-2.62,1.05023806824929
1229,0.54,0.42,0.8,3.84,1.98,-2.77,1.0526157893552615
1230,0.54,0.43,0.8,3.63,1.46,-2.53,1.0566456359631644
1231,0.54,0.43,0.8,3.41,1.25,-2.59,1.0566456359631644
1232,0.55,0.43,0.8,3.41,0.88,-2.56,1.0617909398747007
1233,0.54,0.44,0.79,3.17,0.76,-3.11,1.0532331175955303
1234,0.55,0.44,0.8,2.44,0.34,-3.41,1.0658799181896619
1235,0.55,0.45,0.8,2.07,0.09,-3.96,1.070046727951635
1236,0.55,0.45,0.8,1.1,-0.12,-4.15,1.070046727951635
1237,0.55,0.45,0.8,0.49,-0.12,-4.18,1.070046727951635
1238,0.55,0.45,0.79,-0.4,0.52,-4.33,1.062591172558854
1239,0.55,0.46,0.79,-1.16,0.49,-4.51,1.0668645649753299
1240,0.56,0.46,0.79,-1.49,0.88,-4.48,1.0720541031123383
1241,0.55,0.45,0.79,-2.07,1.22,-4.51,1.062591172558854
1242,0.55,0.45,0.79,-2.29,1.74,-4.94,1.062591172558854
1243,0.55,0.45,0.8,-1.92,1.89,-5.0,1.070046727951635
1244,0.55,0.46,0.8,-2.16,2.01,-4.91,1.074290463515338
1245,0.54,0.46,0.81,-2.01,1.65,-4.85,1.0767079455451234
1246,0.54,0.46,0.81,-1.95,1.52,-4.3,1.0767079455451234
1247,0.53,0.46,0.81,-2.16,1.25,-3.75,1.0717275773255068
1248,0.53,0.46,0.82,-1.28,1.19,-2.87,1.0793053321465618
1249,0.53,0.45,0.82,-1.01,0.64,-2.74,1.0750813922675808
1250,0.53,0.44,0.82,-0.52,0.79,-2.32,1.0709341716464182
1251,0.53,0.44,0.82,0.21,0.55,-1.8,1.0709341716464182
1252,0.53,0.44,0.82,1.31,0.37,-1.65,1.0709341716464182
1253,0.53,0.44,0.82,1.89,0.06,-1.37,1.0709341716464182
1254,0.53,0.44,0.82,2.8,-0.09,-1.01,1.0709341716464182
1255,0.53,0.44,0.82,2.99,-0.21,-0.85,1.0709341716464182
1256,0.53,0.44,0.83,3.32,-0.43,-0.09,1.0786102168995062
1257,0.53,0.44,0.82,4.02,-0.49,0.09,1.0709341716464182
1258,0.53,0.44,0.82,4.51,-0.91,0.49,1.0709341716464182
1259,0.54,0.44,0.82,4.73,-0.67,0.73,1.0759182125050213
1260,0.54,0.43,0.82,5.3,-0.76,0.4,1.0718675291284832
1261,0.54,0.44,0.81,5.58,-0.91,0.64,1.0683164325236227
1262,0.54,0.44,0.81,5.76,-0.64,0.43,1.0683164325236227
1263,0.55,0.44,0.81,5.52,-1.01,-0.03,1.0734057946554976
1264,0.54,0.44,0.81,5.46,-0.98,0.15,1.0683164325236227
1265,0.55,0.43,0.8,5.03,-1.28,0.09,1.0617909398747007
1266,0.55,0.44,0.8,4.24,-1.04,-0.52,1.0658799181896619
1267,0.55,0.44,0.79,3.63,-1.13,-0.49,1.0583950113261116
1268,0.56,0.43,0.8,2.9,-1.16,-1.22,1.0670051546267245
1269,0.55,0.44,0.79,2.44,-1.19,-1.13,1.0583950113261116
1270,0.55,0.43,0.79,1.49,-0.95,-1.95,1.0542770034483349
1271,0.56,0.44,0.8,0.67,-0.34,-2.2,1.071074227119671
1272,0.56,0.44,0.79,0.09,-0.12,-3.17,1.0636258740741502
1273,0.55,0.44,0.79,-0.7,-0.03,-2.96,1.0583950113261116
1274,0.55,0.43,0.8,-1.25,0.55,-2.96,1.0617909398747007
1275,0.55,0.44,0.8,-1.55,0.91,-3.26,1.0658799181896619
1276,0.55,0.44,0.79,-1.71,1.22,-3.57,1.0583950113261116
1277,0.55,0.44,0.8,-1.52,1.49,-3.45,1.0658799181896619
1278,0.55,0.43,0.8,-1.31,1.77,-3.51,1.0617909398747007
1279,0.54,0.43,0.8,-0.95,1.95,-2.96,1.0566456359631644
1280,0.54,0.43,0.8,-0.09,1.89,-2.32,1.0566456359631644
1281,0.54,0.43,0.81,0.67,2.01,-1.71,1.0642368157510809
1282,0.53,0.42,0.81,1.37,1.37,-1.31,1.0551777101512334
1283,0.52,0.43,0.81,2.32,1.07,-1.28,1.054229576515476
1284,0.54,0.43,0.81,2.93,0.64,-0.91,1.0642368157510809
1285,0.54,0.43,0.81,3.78,0.61,-0.7,1.0642368157510809
1286,0.54,0.43,0.81,4.85,0.49,-0.06,1.0642368157510809
1287,0.54,0.43,0.81,4.91,0.55,-0.34,1.0642368157510809
1288,0.54,0.43,0.81,4.91,0.67,0.0,1.0642368157510809
1289,0.54,0.45,0.81,4.82,0.43,0.15,1.0724737759031686
1290,0.54,0.45,0.8,4.24,0.21,0.34,1.0649413129370089
1291,0.53,0.45,0.8,3.54,0.21,0.21,1.0599056561788884
1292,0.55,0.45,0.8,2.93,0.03,-0.37,1.070046727951635
1293,0.55,0.45,0.79,2.01,0.18,-0.55,1.062591172558854
1294,0.55,0.45,0.8,1.04,0.4,-0.79,1.070046727951635
1295,0.55,0.44,0.79,0.3,0.4,-1.46,1.0583950113261116
1296,0.55,0.45,0.8,-0.46,0.09,-1.77,1.070046727951635
1297,0.55,0.44,0.8,-1.22,0.27,-1.92,1.0658799181896619
1298,0.56,0.45,0.81,-1.07,0.37,-2.41,1.0826818553942799
1299,0.54,0.44,0.81,-1.65,0.27,-2.41,1.0683164325236227
1300,0.54,0.44,0.81,-1.65,0.15,-2.07,1.0683164325236227
1301,0.54,0.44,0.81,-1.25,0.0,-1.86,1.0683164325236227
1302,0.54,0.44,0.81,-1.07,-0.09,-1.77,1.0683164325236227
1303,0.54,0.43,0.81,-0.37,-0.03,-1.8,1.0642368157510809
1304,0.54,0.44,0.81,-0.06,0.0,-1.59,1.0683164325236227
1305,0.54,0.44,0.81,0.43,0.52,-1.22,1.0683164325236227
1306,0.54,0.44,0.81,0.76,0.15,-0.95,1.0683164325236227
1307,0.54,0.44,0.81,1.28,0.27,-0.46,1.0683164325236227
1308,0.53,0.45,0.82,1.52,-0.09,0.0,1.0750813922675808
1309,0.53,0.45,0.81,1.46,-0.37,0.09,1.0674736530706508
1310,0.53,0.44,0.81,1.43,-0.7,0.43,1.0632967600815872
1311,0.54,0.44,0.82,1.28,-1.07,0.43,1.0759182125050213
1312,0.54,0.43,0.81,1.74,-1.13,0.49,1.0642368157510809
1313,0.54,0.43,0.81,1.98,-1.34,0.49,1.0642368157510809
1314,0.54,0.43,0.82,2.65,-1.65,0.58,1.0718675291284832
1315,0.54,0.43,0.81,2.93,-1.59,0.43,1.0642368157510809
1316,0.54,0.43,0.82,3.08,-1.8,0.06,1.0718675291284832
1317,0.54,0.44,0.81,3.11,-1.68,0.34,1.0683164325236227
1318,0.54,0.43,0.81,3.51,-1.8,0.64,1.0642368157510809
1319,0.54,0.42,0.81,3.9,-1.55,0.67,1.0602358228243376
1320,0.55,0.43,0.8,3.87,-1.62,0.82,1.0617909398747007
1321,0.55,0.43,0.79,3.9,-1.34,0.64,1.0542770034483349
1322,0.55,0.43,0.8,3.93,-1.74,0.37,1.0617909398747007
1323,0.54,0.44,0.79,3.66,-1.28,0.12,1.0532331175955303
1324,0.54,0.44,0.79,3.14,-1.28,-0.15,1.0532331175955303
1325,0.54,0.44,0.79,2.53,-1.59,-0.34,1.0532331175955303
1326,0.54,0.45,0.79,1.65,-1.59,-0.37,1.057449762400087
1327,0.54,0.45,0.79,1.01,-1.65,-0.79,1.057449762400087
1328,0.54,0.44,0.8,0.58,-1.77,-0.95,1.0607544484940896
1329,0.54,0.44,0.79,0.09,-1.65,-1.1,1.0532331175955303
1330,0.54,0.44,0.79,-0.27,-1.62,-1.65,1.0532331175955303
1331,0.54,0.43,0.8,-0.37,-1.59,-1.59,1.0566456359631644
1332,0.54,0.43,0.8,-0.09,-1.31,-1.1,1.0566456359631644
1333,0.54,0.43,0.8,0.37,-1.25,-1.1,1.0566456359631644
1334,0.54,0.43,0.81,0.55,-1.34,-0.91,1.0642368157510809
1335,0.54,0.42,0.81,1.34,-1.37,-1.01,1.0602358228243376
1336,0.53,0.43,0.8,1.74,-1.34,-0.95,1.051570254429061
1337,0.53,0.42,0.81,2.16,-1.4,-0.18,1.0551777101512334
1338,0.53,0.41,0.8,2.65,-1.92,-0.61,1.0435516278555652
1339,0.53,0.41,0.8,3.48,-2.01,-0.37,1.0435516278555652
1340,0.54,0.41,0.81,4.39,-2.13,0.09,1.0563143471523995
1341,0.54,0.4,0.8,5.3,-1.98,-0.24,1.0447966309287182
1342,0.54,0.41,0.8,6.1,-1.77,-0.27,1.048665819029113
1343,0.54,0.42,0.79,6.1,-1.77,-0.46,1.0450358845513392
1344,0.54,0.42,0.79,6.01,-1.74,-0.76,1.0450358845513392
1345,0.54,0.43,0.79,5.95,-1.43,-1.04,1.0490948479522717
1346,0.54,0.43,0.79,5.12,-1.34,-1.28,1.0490948479522717
1347,0.54,0.44,0.79,4.09,-1.43,-1.16,1.0532331175955303
1348,0.54,0.44,0.79,3.29,-1.31,-1.52,1.0532331175955303
1349,0.54,0.43,0.78,2.74,-1.49,-1.98,1.0415853301578322
1350,0.55,0.43,0.78,2.1,-1.74,-2.23,1.0468046618161384
1351,0.55,0.43,0.79,1.43,-1.49,-3.11,1.0542770034483349
1352,0.55,0.43,0.78,0.85,-1.52,-3.29,1.0468046618161384
1353,0.55,0.43,0.79,0.34,-0.91,-3.26,1.0542770034483349
1354,0.54,0.43,0.79,0.3,-0.7,-3.66,1.0490948479522717
1355,0.54,0.43,0.79,0.15,-0.67,-3.63,1.0490948479522717
1356,0.54,0.42,0.8,0.46,-0.88,-3.32,1.0526157893552615
1357,0.54,0.42,0.8,0.79,-1.07,-3.72,1.0526157893552615
1358,0.55,0.42,0.8,1.31,-1.07,-3.78,1.0577806956075537
1359,0.55,0.42,0.81,2.32,-0.46,-3.41,1.065363787633126
1360,0.55,0.42,0.81,3.02,-0.55,-3.57,1.065363787633126
1361,0.54,0.42,0.8,3.45,-0.52,-3.54,1.0526157893552615
1362,0.54,0.43,0.81,4.24,-0.18,-3.48,1.0642368157510809
1363,0.54,0.43,0.81,4.36,-0.03,-2.84,1.0642368157510809
1364,0.54,0.43,0.8,4.36,0.24,-3.14,1.0566456359631644
1365,0.54,0.44,0.81,4.39,0.18,-2.65,1.0683164325236227
1366,0.54,0.43,0.8,4.33,0.37,-2.29,1.0566456359631644
1367,0.54,0.43,0.79,3.99,0.15,-2.47,1.0490948479522717
1368,0.55,0.43,0.8,3.96,0.52,-2.96,1.0617909398747007
1369,0.54,0.44,0.8,3.45,0.03,-3.23,1.0607544484940896
1370,0.54,0.44,0.81,3.14,-0.09,-3.87,1.0683164325236227
1371,0.54,0.43,0.8,2.99,-0.24,-3.99,1.0566456359631644
1372,0.54,0.44,0.8,2.26,-0.18,-4.18,1.0607544484940896
1373,0.54,0.44,0.79,1.52,-0.18,-4.12,1.0532331175955303
1374,0.54,0.43,0.81,1.49,-0.4,-4.21,1.0642368157510809
1375,0.54,0.44,0.8,1.43,-0.55,-4.33,1.0607544484940896
1376,0.55,0.43,0.81,1.4,-0.55,-4.33,1.069345594277173
1377,0.54,0.42,0.8,2.04,-0.61,-4.48,1.0526157893552615
1378,0.55,0.42,0.81,2.44,-0.88,-4.57,1.065363787633126
1379,0.54,0.43,0.81,3.17,-0.82,-4.6,1.0642368157510809
1380,0.55,0.44,0.81,3.63,-0.95,-4.33,1.0734057946554976
1381,0.54,0.44,0.8,4.02,-1.04,-4.02,1.0607544484940896
1382,0.54,0.45,0.81,3.93,-1.19,-3.93,1.0724737759031686
1383,0.54,0.45,0.81,4.24,-1.31,-4.09,1.0724737759031686
1384,0.55,0.45,0.8,3.6,-1.25,-4.02,1.070046727951635
1385,0.55,0.45,0.8,3.41,-1.28,-3.93,1.070046727951635
1386,0.55,0.46,0.8,2.99,-0.88,-3.81,1.074290463515338
1387,0.55,0.46,0.79,2.93,-1.04,-3.87,1.0668645649753299
1388,0.55,0.46,0.79,2.44,-0.61,-3.72,1.0668645649753299
1389,0.55,0.46,0.8,2.41,-0.49,-3.26,1.074290463515338
1390,0.55,0.46,0.81,2.41,-0.67,-2.74,1.0817578287213827
1391,0.55,0.45,0.8,2.38,-0.58,-2.77,1.070046727951635
1392,0.55,0.45,0.8,2.53,-0.21,-2.29,1.070046727951635
1393,0.56,0.45,0.8,2.56,-0.37,-2.53,1.0752209075348191
1394,0.55,0.45,0.8,2.77,-0.12,-2.35,1.070046727951635
1395,0.56,0.45,0.8,2.87,0.06,-2.23,1.0752209075348191
1396,0.56,0.44,0.8,3.23,-0.09,-2.01,1.071074227119671
1397,0.56,0.44,0.8,3.57,-0.49,-2.29,1.071074227119671
1398,0.55,0.45,0.8,3.63,-0.12,-2.32,1.070046727951635
1399,0.55,0.45,0.8,3.54,-0.61,-2.41,1.070046727951635
1400,0.55,0.46,0.79,2.99,-0.52,-2.44,1.0668645649753299
1401,0.55,0.46,0.8,2.74,-0.79,-2.62,1.074290463515338
1402,0.55,0.46,0.8,2.53,-0.61,-2.1,1.074290463515338
1403,0.55,0.45,0.8,2.04,-0.49,-2.26,1.070046727951635
1404,0.55,0.45,0.79,1.83,-0.61,-1.68,1.062591172558854
1405,0.55,0.45,0.8,1.92,-0.34,-1.8,1.070046727951635
1406,0.55,0.45,0.8,2.32,-0.61,-1.59,1.070046727951635
1407,0.56,0.44,0.8,2.56,-0.43,-1.43,1.071074227119671
1408,0.56,0.44,0.8,2.84,-0.15,-1.1,1.071074227119671
1409,0.55,0.43,0.81,3.57,-0.18,-0.85,1.069345594277173
1410,0.55,0.43,0.81,3.99,-0.15,-0.67,1.069345594277173
1411,0.55,0.43,0.8,4.39,0.06,-0.61,1.0617909398747007
1412,0.55,0.43,0.8,4.6,0.03,-0.12,1.0617909398747007
1413,0.53,0.42,0.81,5.37,-0.12,-0.18,1.0551777101512334
1414,0.53,0.43,0.81,5.34,-0.15,-0.27,1.059197809665409
1415,0.55,0.43,0.81,5.61,-0.3,-0.37,1.069345594277173
1416,0.54,0.43,0.8,5.21,-0.55,-0.7,1.0566456359631644
1417,0.55,0.44,0.8,5.06,-0.64,-1.07,1.0658799181896619
1418,0.55,0.44,0.79,4.39,-0.55,-0.82,1.0583950113261116
1419,0.55,0.44,0.79,3.72,-0.37,-1.34,1.0583950113261116
1420,0.56,0.43,0.8,2.87,-0.4,-1.71,1.0670051546267245
1421,0.55,0.44,0.79,2.59,-0.52,-1.74,1.0583950113261116
1422,0.55,0.43,0.8,1.98,-0.43,-2.16,1.0617909398747007
1423,0.56,0.43,0.79,1.28,-0.27,-2.23,1.0595281968876527
1424,0.56,0.43,0.79,1.37,0.09,-2.62,1.0595281968876527
1425,0.56,0.43,0.79,1.34,0.09,-3.14,1.0595281968876527
1426,0.55,0.43,0.79,1.37,0.58,-3.26,1.0542770034483349
1427,0.55,0.43,0.8,1.55,0.55,-3.26,1.0617909398747007
1428,0.55,0.43,0.8,1.89,0.49,-2.99,1.0617909398747007
1429,0.55,0.43,0.8,2.26,0.49,-2.44,1.0617909398747007
1430,0.55,0.43,0.8,2.56,0.4,-2.29,1.0617909398747007
1431,0.55,0.44,0.8,3.05,0.21,-2.04,1.0658799181896619
1432,0.55,0.44,0.8,3.35,0.15,-2.23,1.0658799181896619
1433,0.54,0.44,0.8,3.75,-0.52,-2.01,1.0607544484940896
1434,0.54,0.44,0.8,3.51,-0.61,-2.16,1.0607544484940896
1435,0.55,0.45,0.8,3.54,-0.79,-2.1,1.070046727951635
1436,0.55,0.45,0.79,3.69,-1.25,-1.55,1.062591172558854
1437,0.55,0.45,0.8,3.23,-1.22,-1.8,1.070046727951635
1438,0.55,0.45,0.79,3.6,-1.22,-1.68,1.062591172558854
1439,0.55,0.45,0.79,3.69,-0.76,-1.83,1.062591172558854
1440,0.55,0.45,0.79,3.41,-0.18,-1.86,1.062591172558854
1441,0.55,0.45,0.79,3.54,0.34,-1.8,1.062591172558854
1442,0.55,0.45,0.79,3.81,0.79,-1.46,1.062591172558854
1443,0.55,0.46,0.79,3.11,0.88,-1.46,1.0668645649753299
1444,0.55,0.45,0.79,3.11,1.8,-1.49,1.062591172558854
1445,0.54,0.45,0.79,2.9,1.89,-1.34,1.057449762400087
1446,0.55,0.45,0.8,2.84,2.2,-1.4,1.070046727951635
1447,0.54,0.45,0.8,2.93,2.32,-1.43,1.0649413129370089
1448,0.54,0.45,0.8,2.84,2.29,-1.28,1.0649413129370089
1449,0.53,0.45,0.81,2.65,1.95,-1.25,1.0674736530706508
1450,0.54,0.44,0.8,2.04,1.74,-1.65,1.0607544484940896
1451,0.54,0.44,0.81,2.2,1.37,-1.28,1.0683164325236227
1452,0.53,0.44,0.81,2.16,0.82,-1.13,1.0632967600815872
1453,0.54,0.44,0.82,1.98,0.61,-1.74,1.0759182125050213
1454,0.54,0.44,0.81,1.52,0.06,-1.68,1.0683164325236227
1455,0.53,0.43,0.81,1.43,-0.67,-1.77,1.059197809665409
1456,0.54,0.43,0.82,1.62,-0.7,-2.1,1.0718675291284832
1457,0.54,0.44,0.81,1.95,-0.95,-2.04,1.0683164325236227
1458,0.54,0.43,0.82,2.32,-1.13,-2.44,1.0718675291284832
1459,0.54,0.43,0.81,2.47,-1.65,-2.23,1.0642368157510809
1460,0.54,0.44,0.81,2.71,-1.31,-2.44,1.0683164325236227
1461,0.54,0.44,0.82,2.9,-1.46,-2.16,1.0759182125050213
1462,0.55,0.45,0.81,2.8,-1.16,-2.13,1.0775435026020992
1463,0.54,0.45,0.81,3.02,-0.91,-1.86,1.0724737759031686
1464,0.55,0.44,0.81,3.29,-0.58,-1.13,1.0734057946554976
1465,0.55,0.44,0.81,3.84,-0.06,-0.79,1.0734057946554976
1466,0.55,0.44,0.8,4.27,0.49,-0.76,1.0658799181896619
1467,0.55,0.44,0.8,4.57,0.21,-0.61,1.0658799181896619
1468,0.54,0.44,0.81,4.91,0.0,-0.49,1.0683164325236227
1469,0.54,0.45,0.8,4.42,-0.64,-0.76,1.0649413129370089
1470,0.54,0.45,0.79,4.42,-0.43,-0.43,1.057449762400087
1471,0.55,0.45,0.8,3.99,-0.7,-1.01,1.070046727951635
1472,0.55,0.45,0.79,3.48,-0.76,-1.19,1.062591172558854
1473,0.55,0.46,0.78,2.93,-0.95,-1.31,1.0594810050208545
1474,0.55,0.46,0.78,2.32,-0.34,-1.46,1.0594810050208545
1475,0.55,0.46,0.79,1.16,-0.15,-1.28,1.0668645649753299
1476,0.55,0.46,0.79,0.64,-0.12,-1.59,1.0668645649753299
1477,0.55,0.46,0.79,0.24,-0.24,-1.65,1.0668645649753299
1478,0.55,0.45,0.79,-0.12,0.03,-1.95,1.062591172558854
1479,0.54,0.45,0.79,-0.27,-0.09,-1.8,1.057449762400087
1480,0.54,0.45,0.79,-0.43,-0.34,-1.89,1.057449762400087
1481,0.54,0.44,0.8,0.15,-0.67,-1.95,1.0607544484940896
1482,0.54,0.44,0.8,0.27,-0.46,-1.74,1.0607544484940896
1483,0.54,0.44,0.8,1.22,-0.82,-1.22,1.0607544484940896
1484,0.54,0.44,0.8,1.68,-0.95,-0.88,1.0607544484940896
1485,0.54,0.43,0.8,2.87,-0.85,-0.49,1.0566456359631644
1486,0.55,0.43,0.79,3.6,-0.58,-0.43,1.0542770034483349
1487,0.54,0.44,0.8,4.21,-0.7,-0.15,1.0607544484940896
1488,0.54,0.44,0.8,4.51,-0.67,-0.18,1.0607544484940896
1489,0.54,0.44,0.79,4.82,-0.88,-0.21,1.0532331175955303
1490,0.55,0.45,0.79,4.76,-0.73,0.03,1.062591172558854
1491,0.55,0.45,0.79,4.6,-0.67,-0.18,1.062591172558854
1492,0.55,0.45,0.79,4.36,-0.73,-0.64,1.062591172558854
1493,0.55,0.48,0.78,7.44,-2.44,-2.2,1.0683164325236227
1494,0.54,0.42,0.79,3.96,-1.34,-1.1,1.0450358845513392
1495,0.55,0.44,0.78,3.75,-1.01,-1.19,1.050951949424901
1496,0.56,0.44,0.78,3.32,-0.12,-1.13,1.0562196741208716
1497,0.56,0.44,0.79,2.99,0.18,-2.04,1.0636258740741502
1498,0.56,0.45,0.78,2.35,0.37,-2.13,1.0604244433244643
